Packet number,Gyroscope X (deg/s),Gyroscope Y (deg/s),Gyroscope Z (deg/s),Accelerometer X (g),Accelerometer Y (g),Accelerometer Z (g),Magnetometer X (G),Magnetometer Y (G),Magnetometer Z (G)
115,1.4375,0.0625,1.0625,-0.2006836,0.03320313,0.9819336,0.2524414,-0.4282227,-0.5551758
117,2.875,-1.3125,1.875,-0.1928711,0.04443359,0.9897461,0.06982422,-0.112793,-0.2192383
118,2.8125,-1.5,1.8125,-0.1855469,0.05224609,0.9858398,0.06982422,-0.1137695,-0.2163086
120,3,-1.5,1.875,-0.1967773,0.04833984,0.9897461,0.06982422,-0.1137695,-0.2163086
121,3.5,-1.625,1.8125,-0.1855469,0.04833984,0.9780273,0.06982422,-0.1137695,-0.2163086
123,3.6875,-1.3125,2.0625,-0.2045898,0.04443359,0.9975586,0.06982422,-0.1137695,-0.2177734
124,3.75,-1.8125,2.3125,-0.2006836,0.04052734,0.9897461,0.06982422,-0.1137695,-0.2177734
126,4.125,-1.9375,2.4375,-0.1928711,0.03662109,0.9936523,0.06982422,-0.112793,-0.2177734
127,4.3125,-1.5625,2.3125,-0.1967773,0.05224609,0.9975586,0.06982422,-0.112793,-0.2177734
129,4.25,-1.5625,2.5625,-0.1928711,0.05224609,0.9780273,0.06982422,-0.112793,-0.2177734
130,4.125,-1.6875,2.375,-0.1928711,0.04443359,0.9975586,0.06982422,-0.112793,-0.2192383
132,4.4375,-1.6875,2.4375,-0.1967773,0.05615234,0.9819336,0.06982422,-0.112793,-0.2177734
133,4.25,-1.625,2.5,-0.1855469,0.05224609,0.9897461,0.06982422,-0.112793,-0.2177734
135,4.5,-1.625,2.3125,-0.1894531,0.05615234,0.9819336,0.06982422,-0.1152344,-0.2163086
136,4.4375,-1.625,2.5625,-0.1894531,0.05615234,0.9858398,0.06835938,-0.1137695,-0.2177734
138,4.3125,-1.5625,2.25,-0.1855469,0.06005859,0.9858398,0.06835938,-0.1137695,-0.2177734
139,4.1875,-1.1875,2.125,-0.1816406,0.06396484,0.9897461,0.06982422,-0.112793,-0.2163086
141,4.0625,-1.125,2.25,-0.1894531,0.05615234,0.9897461,0.06835938,-0.1152344,-0.2192383
142,4.0625,-1.0625,2.125,-0.1928711,0.06005859,0.9897461,0.06835938,-0.1152344,-0.2192383
144,3.75,-1.3125,1.875,-0.1894531,0.05615234,0.9897461,0.06982422,-0.1137695,-0.2163086
145,3.75,-1.125,1.8125,-0.1855469,0.05615234,0.9858398,0.07080078,-0.1137695,-0.2192383
147,3.625,-1.25,1.8125,-0.1894531,0.05615234,0.9897461,0.07080078,-0.1137695,-0.2192383
148,3.5625,-1.3125,1.9375,-0.1967773,0.04443359,0.9858398,0.07080078,-0.1137695,-0.2177734
150,3.9375,-1.5625,1.875,-0.2006836,0.04833984,0.9858398,0.06982422,-0.1137695,-0.2177734
151,4.125,-1.75,2.25,-0.1967773,0.04833984,0.9819336,0.06982422,-0.1137695,-0.2177734
153,4.125,-1.75,2.0625,-0.1928711,0.05224609,0.9819336,0.06835938,-0.1137695,-0.2163086
154,3.75,-1.6875,2,-0.1855469,0.06005859,0.9819336,0.06689453,-0.1152344,-0.2163086
156,3.6875,-1.6875,1.6875,-0.1816406,0.06787109,0.9780273,0.06689453,-0.1152344,-0.2163086
157,3.3125,-1.5625,1.8125,-0.1894531,0.06396484,0.9819336,0.06835938,-0.1137695,-0.2192383
159,3,-1.5,1.6875,-0.1777344,0.07177734,0.9858398,0.06835938,-0.1137695,-0.2177734
160,2.75,-1.3125,1.3125,-0.1894531,0.06787109,0.9819336,0.06835938,-0.1137695,-0.2177734
162,2.3125,-1.1875,1.25,-0.1855469,0.07568359,0.9819336,0.06835938,-0.1152344,-0.2163086
163,2.125,-1.0625,1.1875,-0.1855469,0.07177734,0.9858398,0.06689453,-0.1152344,-0.2163086
165,2,-0.6875,0.8125,-0.1855469,0.07177734,0.9780273,0.06689453,-0.1152344,-0.2163086
166,1.625,-0.6875,0.75,-0.1894531,0.06005859,0.9858398,0.06835938,-0.1152344,-0.2192383
168,1.6875,-0.8125,0.8125,-0.1855469,0.05615234,0.9819336,0.06835938,-0.1137695,-0.2177734
169,1.5,-0.75,0.8125,-0.1928711,0.07177734,0.9780273,0.06835938,-0.1137695,-0.2177734
171,1.1875,-0.3125,0.6875,-0.1777344,0.06787109,0.9819336,0.06835938,-0.1166992,-0.2163086
172,1.0625,-0.3125,0.5625,-0.1928711,0.07177734,0.9819336,0.06835938,-0.1137695,-0.2163086
174,0.9375,-0.1875,0.3125,-0.1855469,0.07177734,0.9897461,0.06835938,-0.1137695,-0.2163086
175,0.5625,-0.0625,0,-0.1855469,0.07568359,0.9858398,0.06982422,-0.1137695,-0.2163086
177,0.4375,-0.25,-0.25,-0.1855469,0.06396484,0.9780273,0.06982422,-0.1152344,-0.2148438
178,0.1875,-0.0625,0,-0.1894531,0.06396484,0.9936523,0.06982422,-0.1152344,-0.2148438
180,0.3125,-0.5,-0.1875,-0.1894531,0.06787109,0.9936523,0.07080078,-0.1166992,-0.2163086
181,-0.0625,-0.125,-0.25,-0.1816406,0.05224609,0.9858398,0.06982422,-0.1152344,-0.2192383
183,0.1875,-0.25,0,-0.1967773,0.04443359,0.9858398,0.06982422,-0.1152344,-0.2192383
184,0.5,-0.4375,0.25,-0.1928711,0.04052734,0.9936523,0.06982422,-0.1166992,-0.2163086
186,1,-0.625,0.375,-0.1967773,0.04443359,0.9975586,0.07080078,-0.1152344,-0.2163086
187,1.375,-0.875,0.75,-0.2006836,0.05224609,0.9897461,0.07080078,-0.1152344,-0.2163086
189,1.3125,-1.125,0.625,-0.1928711,0.06396484,0.9858398,0.06835938,-0.1166992,-0.2177734
190,1.375,-0.75,0.625,-0.1777344,0.04833984,0.9819336,0.06982422,-0.1166992,-0.2177734
192,1.4375,-0.75,0.4375,-0.1855469,0.06005859,0.9897461,0.06982422,-0.1166992,-0.2177734
193,1.25,-0.625,0.5625,-0.1894531,0.06787109,0.9819336,0.06982422,-0.1152344,-0.2163086
195,1.3125,-0.5625,0.25,-0.1967773,0.05615234,0.9897461,0.06689453,-0.1166992,-0.2148438
196,1.4375,-1,0.4375,-0.2006836,0.05615234,0.9936523,0.06689453,-0.1166992,-0.2148438
198,1.375,-0.6875,0.4375,-0.1777344,0.06005859,0.9741211,0.06835938,-0.1137695,-0.2163086
199,1.375,-0.625,0.4375,-0.1855469,0.06396484,0.9858398,0.06835938,-0.1166992,-0.2177734
201,1.3125,-0.1875,0.5,-0.1777344,0.06396484,0.9897461,0.06835938,-0.1166992,-0.2177734
202,1.125,-0.1875,0.3125,-0.1816406,0.06396484,0.9897461,0.06689453,-0.1152344,-0.2148438
204,0.75,-0.0625,0.0625,-0.1816406,0.07568359,0.9858398,0.06689453,-0.1152344,-0.2163086
205,1,-0.125,0.1875,-0.1894531,0.05224609,0.9819336,0.06689453,-0.1152344,-0.2163086
207,1.1875,-0.3125,0.375,-0.2006836,0.04833984,0.9975586,0.06835938,-0.1137695,-0.2177734
208,1.4375,-0.5,0.5625,-0.1928711,0.05224609,0.9858398,0.06835938,-0.1152344,-0.2148438
210,1.8125,-1.0625,0.9375,-0.2045898,0.04443359,0.9897461,0.06835938,-0.1152344,-0.2148438
212,1.875,-1.5625,0.8125,-0.1928711,0.06005859,0.9858398,0.06689453,-0.1152344,-0.2163086
214,2.4375,-1.8125,1.1875,-0.2006836,0.04833984,1.008789,0.06689453,-0.1166992,-0.2148438
215,1.875,-1.5,0.8125,-0.1699219,0.07177734,0.9819336,0.06689453,-0.1166992,-0.2148438
217,2,-1,0.8125,-0.1894531,0.06396484,0.9936523,0.06689453,-0.1166992,-0.2163086
218,1.6875,-1.25,0.625,-0.1855469,0.06396484,0.9936523,0.06689453,-0.1181641,-0.2148438
220,1.9375,-1.1875,0.5,-0.1894531,0.05615234,0.9858398,0.06689453,-0.1181641,-0.2148438
221,1.625,-0.875,0.5,-0.1777344,0.06396484,0.9780273,0.06835938,-0.1152344,-0.2133789
223,1.75,-0.75,0.75,-0.1894531,0.05224609,1.008789,0.06982422,-0.1152344,-0.2177734
224,2.3125,-0.9375,0.8125,-0.1894531,0.05615234,0.9858398,0.06982422,-0.1152344,-0.2177734
226,2.25,-1.125,0.875,-0.1894531,0.06005859,0.9780273,0.06835938,-0.1166992,-0.2163086
227,2.3125,-0.875,0.875,-0.1738281,0.05615234,0.9897461,0.06835938,-0.1166992,-0.2192383
229,2.25,-1.0625,0.9375,-0.1928711,0.05615234,0.9975586,0.06835938,-0.1166992,-0.2192383
230,2.3125,-1.0625,1.1875,-0.1928711,0.06396484,0.9897461,0.06835938,-0.1166992,-0.2163086
232,2.25,-1.0625,1,-0.1816406,0.06787109,0.9819336,0.06689453,-0.1166992,-0.2163086
233,1.9375,-1,0.8125,-0.1894531,0.06787109,0.9819336,0.06689453,-0.1166992,-0.2163086
235,2.0625,-1.25,0.75,-0.1894531,0.06787109,0.9858398,0.06835938,-0.1152344,-0.2148438
236,1.6875,-0.8125,0.625,-0.1777344,0.06396484,0.9936523,0.06689453,-0.1181641,-0.2163086
238,1.6875,-0.9375,0.5,-0.1894531,0.06787109,0.9819336,0.06689453,-0.1181641,-0.2163086
239,1.5625,-1,0.5625,-0.1928711,0.07177734,0.9819336,0.06982422,-0.1152344,-0.2177734
241,1.1875,-1,0.6875,-0.1816406,0.07177734,0.9897461,0.06982422,-0.1166992,-0.2148438
242,1.0625,-0.5,0.5625,-0.1855469,0.07568359,0.9819336,0.06982422,-0.1166992,-0.2148438
244,0.6875,-0.5625,0.3125,-0.1855469,0.07568359,0.9858398,0.06835938,-0.1152344,-0.2163086
245,0.4375,-0.375,0.1875,-0.1816406,0.07177734,0.9897461,0.06689453,-0.1166992,-0.2148438
247,0.125,-0.25,0.1875,-0.1816406,0.07568359,0.9858398,0.06689453,-0.1166992,-0.2148438
248,0.0625,-0.3125,0.1875,-0.1855469,0.06396484,0.9819336,0.06689453,-0.1166992,-0.2148438
250,-0.0625,-0.3125,0,-0.1777344,0.07177734,0.9858398,0.06835938,-0.1166992,-0.2192383
251,0,-0.25,0.125,-0.1855469,0.07568359,0.9819336,0.06835938,-0.1166992,-0.2192383
253,-0.25,-0.0625,-0.25,-0.1816406,0.08349609,0.9819336,0.06591797,-0.1166992,-0.2163086
254,-0.5,-0.25,-0.375,-0.1855469,0.07958984,0.9858398,0.06689453,-0.1152344,-0.2163086
256,-1.0625,-0.25,-0.5,-0.1738281,0.08349609,0.9780273,0.06689453,-0.1152344,-0.2163086
257,-1.5,0.1875,-0.8125,-0.1699219,0.07177734,0.9741211,0.06835938,-0.1181641,-0.2148438
259,-2,0.4375,-1,-0.1738281,0.07958984,0.9667969,0.06689453,-0.1166992,-0.2177734
260,-1.9375,0.875,-1.25,-0.1816406,0.06787109,0.9897461,0.06689453,-0.1166992,-0.2177734
262,-2.25,0.9375,-1.0625,-0.1816406,0.06396484,0.9819336,0.06835938,-0.1152344,-0.2177734
263,-2.1875,1.25,-1.125,-0.1855469,0.06005859,0.9819336,0.06835938,-0.1137695,-0.2163086
265,-2,1.3125,-1,-0.1894531,0.05615234,0.9897461,0.06835938,-0.1137695,-0.2163086
266,-1.875,1.25,-0.8125,-0.1928711,0.06005859,0.9897461,0.06835938,-0.1181641,-0.2148438
268,-1.5625,0.875,-0.9375,-0.1894531,0.06005859,0.9936523,0.06835938,-0.1166992,-0.2163086
269,-1.4375,0.6875,-0.75,-0.1928711,0.05615234,0.9858398,0.06835938,-0.1166992,-0.2163086
271,-1.3125,0.25,-0.4375,-0.1894531,0.05615234,0.9897461,0.06835938,-0.1181641,-0.2163086
272,-1.0625,0.375,-0.4375,-0.1855469,0.06005859,0.9975586,0.06835938,-0.1152344,-0.2148438
274,-1.25,0.375,-0.5625,-0.1967773,0.06396484,0.9819336,0.06835938,-0.1152344,-0.2148438
275,-1.375,0.4375,-0.6875,-0.1855469,0.06396484,0.9936523,0.06835938,-0.1166992,-0.2148438
277,-1.25,0.625,-0.5,-0.1894531,0.06787109,0.9858398,0.06982422,-0.1166992,-0.2177734
278,-1.25,0.8125,-0.5625,-0.1855469,0.06005859,0.9858398,0.06982422,-0.1166992,-0.2177734
280,-1.25,0.875,-0.4375,-0.1894531,0.06005859,0.9897461,0.06982422,-0.1152344,-0.2148438
281,-1.3125,0.625,-0.625,-0.1894531,0.06396484,0.9897461,0.06982422,-0.1166992,-0.2133789
283,-1.4375,0.625,-0.8125,-0.1928711,0.07568359,0.9858398,0.06982422,-0.1166992,-0.2133789
284,-1.6875,0.8125,-0.875,-0.1928711,0.06396484,0.9858398,0.06982422,-0.1166992,-0.2163086
286,-1.875,0.5,-1.125,-0.1855469,0.07177734,0.9819336,0.06982422,-0.1166992,-0.2177734
287,-2.0625,0.4375,-1.3125,-0.1855469,0.07568359,0.9897461,0.06982422,-0.1166992,-0.2177734
289,-2.375,0.6875,-1.4375,-0.1855469,0.06787109,0.9819336,0.06689453,-0.1152344,-0.2163086
290,-2.6875,0.5625,-1.6875,-0.1816406,0.06396484,0.9858398,0.06835938,-0.1166992,-0.2163086
292,-2.6875,0.625,-1.8125,-0.1894531,0.07177734,0.9936523,0.06835938,-0.1166992,-0.2163086
293,-2.625,0.5,-1.5,-0.1855469,0.06005859,0.9897461,0.06835938,-0.1137695,-0.2133789
295,-2.6875,0.75,-1.6875,-0.1894531,0.06787109,0.9897461,0.06982422,-0.1166992,-0.2163086
296,-2.8125,0.9375,-1.75,-0.1855469,0.06005859,0.9936523,0.06982422,-0.1166992,-0.2163086
298,-2.75,0.8125,-1.75,-0.1894531,0.05224609,0.9936523,0.06835938,-0.1152344,-0.2163086
299,-2.5,0.9375,-1.6875,-0.1894531,0.05224609,0.9897461,0.06689453,-0.1152344,-0.2148438
301,-2.25,0.75,-1.375,-0.1967773,0.05224609,0.9897461,0.06689453,-0.1152344,-0.2148438
302,-1.9375,0.6875,-1.1875,-0.1928711,0.04443359,0.9975586,0.07080078,-0.1166992,-0.2148438
304,-1.625,0.4375,-1,-0.2045898,0.04052734,0.9897461,0.06835938,-0.1181641,-0.2148438
305,-1.0625,0.3125,-0.6875,-0.1894531,0.04443359,0.9858398,0.06835938,-0.1181641,-0.2148438
307,-0.8125,0,-0.5,-0.1928711,0.05224609,0.9897461,0.06689453,-0.1152344,-0.2163086
310,-0.75,0.0625,-0.25,-0.1894531,0.06005859,0.9936523,0.06689453,-0.1166992,-0.2163086
312,-0.5625,0.0625,-0.25,-0.1894531,0.05615234,0.9936523,0.06689453,-0.1166992,-0.2163086
313,-0.5,0.125,-0.3125,-0.1855469,0.06005859,0.9975586,0.06835938,-0.1152344,-0.2148438
315,-0.5,-0.0625,-0.375,-0.1967773,0.05615234,1.001465,0.06835938,-0.1152344,-0.2133789
316,-0.0625,-0.1875,-0.125,-0.2006836,0.05615234,0.9936523,0.06835938,-0.1152344,-0.2133789
318,-0.4375,-0.3125,-0.3125,-0.1855469,0.06396484,0.9819336,0.06835938,-0.1166992,-0.2177734
319,-0.1875,-0.0625,0,-0.1928711,0.05615234,0.9975586,0.06835938,-0.1166992,-0.2148438
321,-0.25,-0.3125,-0.125,-0.1894531,0.05224609,0.9858398,0.06835938,-0.1166992,-0.2148438
322,0,-0.25,-0.0625,-0.1855469,0.05615234,0.9897461,0.06835938,-0.1152344,-0.2177734
324,0,-0.25,-0.1875,-0.1855469,0.06787109,0.9858398,0.06835938,-0.1166992,-0.2133789
325,0,-0.6875,-0.5625,-0.1738281,0.05615234,0.9936523,0.06835938,-0.1166992,-0.2133789
327,-0.25,0.3125,-0.375,-0.2084961,0.06787109,0.9936523,0.06689453,-0.1166992,-0.2192383
328,-0.1875,-0.5625,-0.375,-0.1894531,0.05224609,0.9741211,0.06835938,-0.1152344,-0.2148438
330,0,-0.375,-0.25,-0.1816406,0.05224609,0.9936523,0.06835938,-0.1152344,-0.2148438
331,0.3125,-0.5,-0.0625,-0.1967773,0.05615234,1.012695,0.06835938,-0.1152344,-0.2177734
333,0.0625,-0.625,-0.3125,-0.1777344,0.06005859,0.9741211,0.07080078,-0.1166992,-0.2148438
334,0.1875,-0.1875,-0.125,-0.1894531,0.05224609,0.9897461,0.07080078,-0.1166992,-0.2148438
336,0,-0.25,-0.3125,-0.1928711,0.06396484,0.9975586,0.06689453,-0.1137695,-0.2148438
337,0.4375,-0.5625,-0.375,-0.1967773,0.04833984,0.9897461,0.06835938,-0.1137695,-0.2163086
339,0.1875,-1,-0.125,-0.1928711,0.07177734,0.9897461,0.06835938,-0.1137695,-0.2163086
340,0.25,-0.5,0,-0.1738281,0.05615234,0.9780273,0.06835938,-0.1137695,-0.2163086
342,0.3125,-0.125,-0.0625,-0.1894531,0.05615234,0.9975586,0.06689453,-0.1152344,-0.2163086
343,0.25,-0.375,-0.0625,-0.1928711,0.06005859,0.9897461,0.06689453,-0.1152344,-0.2163086
345,0.375,-0.5625,-0.0625,-0.1928711,0.05224609,0.9936523,0.06835938,-0.1166992,-0.2163086
346,0.6875,-0.8125,0.1875,-0.2006836,0.06005859,1.001465,0.06835938,-0.1152344,-0.2163086
348,0.5,-0.625,0,-0.1777344,0.06005859,0.9819336,0.06835938,-0.1152344,-0.2163086
349,0.625,-0.5,0.1875,-0.1894531,0.06005859,0.9936523,0.06835938,-0.1181641,-0.2148438
351,0.8125,-0.6875,0.0625,-0.1928711,0.05615234,0.9897461,0.06835938,-0.1152344,-0.2148438
352,1.125,-0.625,0.25,-0.1855469,0.06005859,0.9858398,0.06835938,-0.1152344,-0.2148438
354,1.0625,-0.75,0.125,-0.1894531,0.05615234,0.9936523,0.06689453,-0.1166992,-0.2177734
355,0.875,-0.6875,0.3125,-0.1816406,0.06005859,0.9819336,0.06982422,-0.1152344,-0.2177734
357,1.1875,-0.625,0.5625,-0.1855469,0.05224609,0.9975586,0.06982422,-0.1152344,-0.2177734
358,1.1875,-1.125,0.5,-0.2006836,0.05224609,0.9858398,0.06835938,-0.1166992,-0.2163086
360,1.5,-0.875,0.4375,-0.1816406,0.05615234,0.9897461,0.06835938,-0.1166992,-0.2163086
361,1.625,-1.3125,0.625,-0.1967773,0.05615234,0.9975586,0.06835938,-0.1166992,-0.2163086
363,1.3125,-1.3125,0.5,-0.1777344,0.06396484,0.9741211,0.06689453,-0.1152344,-0.2148438
364,1.25,-0.875,0.75,-0.1738281,0.05615234,0.9897461,0.06835938,-0.1137695,-0.2177734
366,1.375,-0.6875,0.6875,-0.1816406,0.06396484,0.9897461,0.06835938,-0.1137695,-0.2177734
367,1.6875,-0.6875,0.625,-0.1855469,0.04833984,0.9897461,0.06835938,-0.1152344,-0.2163086
369,1.4375,-0.5,0.75,-0.1855469,0.06396484,0.9936523,0.06689453,-0.1152344,-0.2148438
370,1.3125,-0.25,0.6875,-0.1738281,0.06005859,0.9819336,0.06689453,-0.1152344,-0.2148438
372,1.25,-0.0625,0.6875,-0.1855469,0.06005859,0.9897461,0.06835938,-0.1152344,-0.2133789
373,1.1875,-0.1875,0.5,-0.1777344,0.07177734,0.9819336,0.06689453,-0.1152344,-0.2148438
375,1.25,-0.125,0.5,-0.1855469,0.06005859,0.9819336,0.06689453,-0.1152344,-0.2148438
376,0.9375,-0.125,0.5,-0.1894531,0.06396484,0.9897461,0.06835938,-0.1166992,-0.2177734
378,1,-0.25,0.375,-0.1855469,0.05615234,0.9936523,0.06982422,-0.1137695,-0.2148438
379,1.125,-0.3125,0.4375,-0.1777344,0.06005859,0.9780273,0.06982422,-0.1137695,-0.2148438
381,1.0625,-0.125,0.5,-0.1855469,0.06396484,0.9780273,0.06689453,-0.1152344,-0.2148438
382,0.875,-0.0625,0.125,-0.1816406,0.06396484,0.9858398,0.06835938,-0.1152344,-0.2163086
384,0.625,-0.0625,0.1875,-0.1894531,0.07177734,0.9819336,0.06835938,-0.1152344,-0.2163086
385,0.5,0,0.1875,-0.1816406,0.06787109,0.9819336,0.06982422,-0.1166992,-0.2177734
387,0,0,-0.0625,-0.1816406,0.06787109,0.9780273,0.06835938,-0.1166992,-0.2163086
388,-0.0625,0.1875,-0.125,-0.1816406,0.07177734,0.9897461,0.06835938,-0.1166992,-0.2163086
390,-0.25,0.4375,-0.1875,-0.1894531,0.06396484,0.9858398,0.06835938,-0.1152344,-0.2177734
391,-0.125,0.3125,-0.1875,-0.1894531,0.06787109,0.9858398,0.06689453,-0.1166992,-0.2163086
393,-0.25,0.25,-0.3125,-0.1894531,0.06005859,0.9819336,0.06689453,-0.1166992,-0.2163086
394,-0.25,0.5625,0,-0.1855469,0.05615234,0.9897461,0.06835938,-0.1166992,-0.2148438
396,-0.0625,0.25,-0.3125,-0.1894531,0.05224609,0.9936523,0.06835938,-0.1166992,-0.2148438
397,0.0625,0.125,-0.3125,-0.1894531,0.05615234,0.9936523,0.06835938,-0.1166992,-0.2148438
399,0.125,0.375,-0.0625,-0.1855469,0.05615234,0.9819336,0.06835938,-0.1152344,-0.2163086
400,0.375,0.0625,0.0625,-0.1894531,0.05615234,0.9897461,0.06689453,-0.1181641,-0.2177734
402,0.625,-0.0625,0.125,-0.1894531,0.05615234,0.9819336,0.06689453,-0.1181641,-0.2177734
403,0.5625,-0.0625,0.375,-0.1816406,0.05224609,0.9858398,0.06835938,-0.1166992,-0.2148438
405,1,-0.0625,0.625,-0.1928711,0.05224609,1.001465,0.06689453,-0.1166992,-0.2148438
407,1.3125,-0.125,0.625,-0.1855469,0.05615234,0.9897461,0.06689453,-0.1166992,-0.2148438
409,1.5,-0.4375,0.5,-0.1894531,0.06396484,0.9819336,0.06835938,-0.1152344,-0.2177734
410,1.4375,-0.375,0.6875,-0.1855469,0.05615234,0.9897461,0.06689453,-0.1137695,-0.2163086
412,1.5,-0.3125,0.5625,-0.1894531,0.06787109,0.9858398,0.06689453,-0.1137695,-0.2163086
413,1.5,-0.3125,0.75,-0.1894531,0.06005859,0.9975586,0.06835938,-0.1152344,-0.2163086
415,1.75,-0.5625,0.75,-0.1855469,0.05615234,0.9858398,0.06689453,-0.1166992,-0.2133789
416,1.75,-0.6875,0.875,-0.1855469,0.06396484,0.9858398,0.06689453,-0.1166992,-0.2133789
418,1.6875,-0.5625,0.625,-0.1816406,0.06396484,0.9819336,0.06689453,-0.1152344,-0.2192383
419,1.625,-0.625,0.6875,-0.1816406,0.06787109,0.9819336,0.06982422,-0.1166992,-0.2192383
421,1.4375,-0.6875,0.75,-0.1855469,0.06787109,0.9819336,0.06982422,-0.1166992,-0.2192383
422,1.375,-0.3125,0.5,-0.1894531,0.07177734,0.9819336,0.06835938,-0.1152344,-0.2133789
424,1.125,-0.3125,0.5,-0.1816406,0.06396484,0.9780273,0.06835938,-0.1181641,-0.2163086
425,1.1875,-0.4375,0.4375,-0.1855469,0.06396484,0.9780273,0.06835938,-0.1181641,-0.2163086
427,1.0625,-0.1875,0.3125,-0.1855469,0.07177734,0.9819336,0.06835938,-0.1181641,-0.2177734
428,0.75,-0.375,0.1875,-0.1816406,0.06787109,0.9858398,0.06689453,-0.1181641,-0.2148438
430,0.8125,-0.25,0.3125,-0.1855469,0.06396484,0.9858398,0.06689453,-0.1181641,-0.2148438
431,0.6875,-0.4375,0.1875,-0.1855469,0.06787109,0.9897461,0.06835938,-0.1166992,-0.2148438
433,0.75,-0.5,0.125,-0.1777344,0.06396484,0.9819336,0.06689453,-0.1166992,-0.2148438
434,0.375,-0.3125,0.125,-0.1816406,0.06396484,0.9819336,0.06689453,-0.1166992,-0.2148438
436,0.3125,-0.25,0,-0.1777344,0.06787109,0.9897461,0.06982422,-0.1152344,-0.2163086
437,0.4375,-0.125,0.0625,-0.1928711,0.06005859,0.9858398,0.06689453,-0.1152344,-0.2148438
439,0.4375,-0.25,0,-0.1855469,0.06005859,0.9858398,0.06689453,-0.1152344,-0.2148438
440,0.375,-0.5,0,-0.1855469,0.06396484,0.9897461,0.06835938,-0.1152344,-0.2148438
442,0.625,-0.4375,0,-0.1816406,0.06396484,0.9858398,0.06835938,-0.1166992,-0.2148438
443,0.1875,-0.375,-0.125,-0.1894531,0.06396484,0.9897461,0.06835938,-0.1166992,-0.2148438
445,0.25,-0.3125,0.1875,-0.1777344,0.06396484,0.9897461,0.06689453,-0.1166992,-0.2133789
446,0.375,-0.4375,0,-0.1855469,0.06005859,0.9858398,0.06835938,-0.1166992,-0.2148438
448,0.1875,-0.625,0,-0.1816406,0.06787109,0.9858398,0.06835938,-0.1166992,-0.2148438
449,0.375,-0.375,0,-0.1894531,0.06396484,0.9897461,0.06689453,-0.1152344,-0.2192383
451,0.125,-0.5,0.1875,-0.1816406,0.06396484,0.9819336,0.06689453,-0.1166992,-0.2163086
452,0.0625,-0.3125,-0.0625,-0.1816406,0.06396484,0.9897461,0.06689453,-0.1166992,-0.2163086
454,-0.125,-0.25,0,-0.1855469,0.06396484,0.9936523,0.06835938,-0.1166992,-0.2163086
455,0.0625,-0.0625,0,-0.1894531,0.06396484,0.9858398,0.06835938,-0.1166992,-0.2177734
457,0,-0.125,-0.0625,-0.1855469,0.06396484,0.9897461,0.06835938,-0.1166992,-0.2177734
458,-0.0625,0,0,-0.1894531,0.06005859,0.9780273,0.06835938,-0.1152344,-0.2148438
460,-0.0625,0.0625,0,-0.1855469,0.06787109,0.9897461,0.06982422,-0.1152344,-0.2163086
461,0,0.125,0,-0.1816406,0.06005859,0.9858398,0.06982422,-0.1152344,-0.2163086
463,-0.25,-0.1875,-0.1875,-0.1855469,0.06787109,0.9897461,0.06689453,-0.1152344,-0.2148438
464,-0.1875,0.0625,-0.125,-0.1777344,0.06787109,0.9897461,0.06982422,-0.1181641,-0.2148438
466,-0.3125,0,-0.25,-0.1855469,0.07177734,0.9780273,0.06982422,-0.1181641,-0.2148438
467,-0.25,0.125,-0.375,-0.1816406,0.06005859,0.9858398,0.06982422,-0.1152344,-0.2148438
469,-0.375,0.375,-0.25,-0.1855469,0.06787109,0.9897461,0.06835938,-0.1166992,-0.2148438
470,-0.4375,0.1875,-0.375,-0.1855469,0.06787109,0.9780273,0.06835938,-0.1166992,-0.2148438
472,-0.25,0.375,-0.25,-0.1855469,0.06005859,0.9858398,0.06835938,-0.1181641,-0.2133789
473,-0.8125,0.1875,-0.4375,-0.1777344,0.07177734,0.9897461,0.06835938,-0.1181641,-0.2133789
475,-0.6875,0.3125,-0.4375,-0.1894531,0.06396484,0.9858398,0.06835938,-0.1181641,-0.2133789
476,-0.5,0.3125,-0.5625,-0.1855469,0.06396484,0.9819336,0.06835938,-0.1166992,-0.2163086
478,-0.625,0.5,-0.5625,-0.1894531,0.06005859,0.9936523,0.06689453,-0.1137695,-0.2148438
479,-0.6875,0.4375,-0.5,-0.1855469,0.07177734,0.9780273,0.06689453,-0.1137695,-0.2148438
481,-0.625,0.125,-0.5625,-0.1816406,0.06396484,0.9819336,0.06835938,-0.1166992,-0.2148438
482,-0.9375,0.4375,-0.625,-0.1855469,0.06396484,0.9858398,0.06835938,-0.1152344,-0.2148438
484,-0.8125,0.3125,-0.5,-0.1894531,0.06396484,0.9936523,0.06835938,-0.1152344,-0.2148438
485,-0.9375,0.25,-0.6875,-0.1894531,0.06787109,0.9897461,0.06835938,-0.1166992,-0.2148438
487,-0.9375,0.4375,-0.6875,-0.1894531,0.06005859,0.9897461,0.06835938,-0.1152344,-0.2148438
488,-0.9375,0.375,-0.875,-0.1816406,0.06005859,0.9936523,0.06835938,-0.1152344,-0.2148438
490,-0.625,0.1875,-0.5,-0.1894531,0.06005859,0.9936523,0.06689453,-0.1152344,-0.2148438
491,-0.6875,0.5,-0.625,-0.1816406,0.06396484,0.9897461,0.06835938,-0.1152344,-0.2177734
493,-0.6875,0.3125,-0.5,-0.1894531,0.06396484,0.9858398,0.06835938,-0.1152344,-0.2177734
494,-0.9375,0.375,-0.5625,-0.1816406,0.06787109,0.9936523,0.06835938,-0.1181641,-0.2177734
496,-1,0.1875,-0.5,-0.1928711,0.06787109,0.9975586,0.06982422,-0.1166992,-0.2163086
497,-1.0625,0.125,-0.75,-0.1894531,0.06787109,0.9897461,0.06982422,-0.1166992,-0.2163086
499,-1,0.3125,-0.625,-0.1855469,0.06005859,0.9858398,0.06835938,-0.1166992,-0.2133789
500,-0.8125,0.25,-0.5,-0.1894531,0.05615234,0.9897461,0.06835938,-0.1166992,-0.2163086
502,-0.75,0.25,-0.5625,-0.1855469,0.05615234,0.9858398,0.06835938,-0.1166992,-0.2163086
505,-0.6875,0.25,-0.375,-0.1855469,0.06396484,0.9858398,0.06689453,-0.1166992,-0.2163086
507,-1.0625,0.1875,-0.375,-0.1894531,0.05615234,0.9897461,0.06982422,-0.1166992,-0.2163086
508,-0.75,0,-0.6875,-0.1855469,0.06396484,0.9819336,0.06982422,-0.1166992,-0.2163086
510,-0.9375,0.3125,-0.6875,-0.1816406,0.06396484,0.9858398,0.06835938,-0.1152344,-0.2148438
511,-0.875,0.0625,-0.5625,-0.1855469,0.06005859,0.9819336,0.06835938,-0.1152344,-0.2148438
513,-0.9375,0.1875,-0.5625,-0.1816406,0.05615234,0.9936523,0.06835938,-0.1152344,-0.2148438
514,-0.8125,0.5,-0.5625,-0.1894531,0.06005859,0.9897461,0.06835938,-0.1166992,-0.2163086
516,-0.875,0.3125,-0.625,-0.1894531,0.06787109,0.9819336,0.06982422,-0.1181641,-0.2148438
517,-0.9375,0.125,-0.75,-0.1894531,0.06396484,0.9858398,0.06982422,-0.1181641,-0.2148438
519,-0.9375,0.1875,-0.6875,-0.1855469,0.06787109,0.9858398,0.06982422,-0.1152344,-0.2163086
520,-0.875,0.125,-0.75,-0.1894531,0.06396484,0.9858398,0.06689453,-0.1152344,-0.2148438
522,-1,0.3125,-0.75,-0.1855469,0.06396484,0.9897461,0.06689453,-0.1152344,-0.2148438
523,-0.9375,-0.75,-0.6875,-0.2006836,0.06005859,0.9628906,0.06982422,-0.1152344,-0.2133789
525,-0.8125,0.25,-0.6875,-0.1621094,0.05615234,0.9936523,0.06835938,-0.1152344,-0.2163086
526,-0.8125,0.75,-0.75,-0.2006836,0.06396484,0.9897461,0.06835938,-0.1152344,-0.2163086
528,-0.6875,-0.0625,-0.75,-0.1967773,0.06396484,0.9897461,0.06835938,-0.1166992,-0.2163086
529,-0.4375,0.125,-0.625,-0.1777344,0.05224609,0.9975586,0.06591797,-0.1152344,-0.2148438
531,-0.375,0.375,-0.6875,-0.1894531,0.05615234,0.9819336,0.06591797,-0.1152344,-0.2148438
532,-0.0625,0.0625,-0.375,-0.1928711,0.05224609,0.9858398,0.06835938,-0.1152344,-0.2124023
534,-0.0625,0.1875,-0.1875,-0.1816406,0.05615234,0.9819336,0.06835938,-0.1137695,-0.2163086
535,0,0.1875,-0.125,-0.1894531,0.06005859,0.9858398,0.06835938,-0.1137695,-0.2163086
537,0.1875,0.0625,-0.125,-0.1816406,0.05615234,0.9858398,0.06689453,-0.1152344,-0.2177734
538,0,0.1875,-0.4375,-0.1894531,0.06787109,0.9819336,0.06835938,-0.1166992,-0.2163086
540,-0.125,0.1875,-0.25,-0.1855469,0.06396484,0.9936523,0.06835938,-0.1166992,-0.2163086
541,-0.1875,0,-0.375,-0.1894531,0.06396484,0.9858398,0.06689453,-0.1166992,-0.2192383
543,0,0,-0.375,-0.1928711,0.05615234,0.9897461,0.06835938,-0.1137695,-0.2163086
544,0,-0.0625,-0.1875,-0.1894531,0.05615234,0.9936523,0.06835938,-0.1137695,-0.2163086
546,0,-0.25,-0.1875,-0.1816406,0.05615234,0.9975586,0.06835938,-0.1152344,-0.2148438
547,0.0625,0,-0.25,-0.1855469,0.06396484,0.9819336,0.06982422,-0.1166992,-0.2148438
549,0.0625,-0.25,-0.1875,-0.1816406,0.06396484,0.9936523,0.06982422,-0.1166992,-0.2148438
550,0.125,-0.125,-0.125,-0.1894531,0.06005859,0.9936523,0.06689453,-0.1152344,-0.2177734
552,0.125,-0.25,-0.125,-0.1855469,0.06396484,0.9819336,0.06835938,-0.1152344,-0.2163086
553,0.25,-0.4375,-0.1875,-0.1894531,0.05615234,0.9897461,0.06835938,-0.1152344,-0.2163086
555,0.0625,-0.3125,0,-0.1928711,0.06787109,0.9897461,0.06835938,-0.1152344,-0.2148438
556,0.1875,-0.5625,-0.1875,-0.1816406,0.06005859,0.9936523,0.06835938,-0.1152344,-0.2163086
558,0.1875,-0.375,-0.0625,-0.1928711,0.05615234,0.9858398,0.06835938,-0.1152344,-0.2163086
559,0.25,-0.375,-0.25,-0.1928711,0.06396484,0.9858398,0.06689453,-0.1166992,-0.2148438
561,0,-0.6875,0,-0.1894531,0.06396484,0.9858398,0.06835938,-0.1152344,-0.2163086
562,-0.1875,-0.375,-0.1875,-0.1777344,0.06005859,0.9897461,0.06835938,-0.1152344,-0.2163086
564,-0.125,-0.25,-0.125,-0.1894531,0.06787109,0.9858398,0.06689453,-0.1137695,-0.2177734
565,-0.125,-0.4375,-0.3125,-0.1855469,0.06005859,0.9780273,0.06835938,-0.1137695,-0.2177734
567,-0.3125,-0.375,-0.1875,-0.1967773,0.06787109,0.9780273,0.06835938,-0.1137695,-0.2177734
568,-0.375,-0.1875,-0.25,-0.1855469,0.06005859,0.9897461,0.06835938,-0.1152344,-0.2163086
570,-0.375,-0.125,-0.25,-0.1894531,0.06005859,0.9897461,0.06982422,-0.1137695,-0.2163086
571,-0.5,-0.0625,-0.1875,-0.1855469,0.06787109,0.9780273,0.06982422,-0.1137695,-0.2163086
573,-0.5625,-0.25,-0.3125,-0.1855469,0.06396484,0.9897461,0.06835938,-0.1152344,-0.2163086
574,-0.4375,-0.125,-0.4375,-0.1855469,0.07177734,0.9819336,0.06835938,-0.1166992,-0.2163086
576,-1.0625,0.0625,-0.5625,-0.1855469,0.07177734,0.9897461,0.06835938,-0.1166992,-0.2163086
577,-0.9375,0.125,-0.6875,-0.1777344,0.06787109,0.9936523,0.06982422,-0.1166992,-0.2148438
579,-1.125,-0.0625,-0.5,-0.1855469,0.06005859,0.9975586,0.06835938,-0.1152344,-0.2177734
580,-1,-0.0625,-0.5625,-0.1816406,0.06005859,0.9858398,0.06835938,-0.1152344,-0.2177734
582,-1.3125,-0.0625,-0.8125,-0.1928711,0.06005859,0.9858398,0.06835938,-0.1152344,-0.2148438
583,-1.1875,-0.0625,-0.75,-0.1894531,0.06005859,0.9858398,0.06835938,-0.1152344,-0.2148438
585,-1.1875,-0.125,-0.5625,-0.1894531,0.06005859,0.9858398,0.06835938,-0.1152344,-0.2148438
586,-1.375,-0.125,-0.8125,-0.1894531,0.07177734,0.9975586,0.06689453,-0.1137695,-0.2148438
588,-1.4375,0.1875,-0.8125,-0.1816406,0.05615234,0.9897461,0.06835938,-0.1152344,-0.2163086
589,-1.5625,0,-0.8125,-0.1894531,0.07177734,0.9780273,0.06835938,-0.1152344,-0.2163086
591,-1.6875,-0.25,-0.8125,-0.1894531,0.05224609,0.9975586,0.06689453,-0.1152344,-0.2163086
592,-1.375,0.1875,-0.875,-0.1855469,0.05615234,0.9936523,0.06689453,-0.1152344,-0.2148438
594,-1.4375,0.0625,-0.9375,-0.1894531,0.05615234,0.9897461,0.06689453,-0.1152344,-0.2148438
595,-1.375,0,-1,-0.1816406,0.06396484,0.9858398,0.06689453,-0.1137695,-0.2148438
597,-1.5,0,-0.8125,-0.1855469,0.06005859,0.9975586,0.06835938,-0.1152344,-0.2148438
598,-1.4375,0,-0.8125,-0.1894531,0.06005859,0.9858398,0.06835938,-0.1152344,-0.2148438
600,-1.1875,-0.1875,-0.9375,-0.1894531,0.06787109,0.9975586,0.06835938,-0.1137695,-0.2177734
602,-1.3125,-0.125,-0.875,-0.1894531,0.06005859,1.001465,0.06689453,-0.1137695,-0.2163086
604,-1.125,0.0625,-0.8125,-0.1855469,0.05615234,0.9780273,0.06689453,-0.1137695,-0.2163086
605,-1.375,-0.4375,-0.8125,-0.1855469,0.06396484,0.9819336,0.06835938,-0.1137695,-0.2163086
607,-1.5,0,-1.0625,-0.1855469,0.05615234,0.9975586,0.06689453,-0.1152344,-0.2163086
608,-1.4375,0,-1.125,-0.1894531,0.05224609,0.9897461,0.06689453,-0.1152344,-0.2163086
610,-1.1875,-0.5,-1.0625,-0.1928711,0.06787109,0.9858398,0.06835938,-0.1166992,-0.2148438
611,-1.5,0.25,-0.9375,-0.1855469,0.04833984,1.016602,0.06835938,-0.1152344,-0.2163086
613,-1.375,-0.3125,-0.9375,-0.1894531,0.06787109,0.9667969,0.06835938,-0.1152344,-0.2163086
614,-1.625,-0.625,-1.125,-0.1855469,0.06396484,0.9858398,0.06835938,-0.1152344,-0.2192383
616,-1.8125,0.3125,-1.1875,-0.1777344,0.06787109,1.001465,0.06835938,-0.1152344,-0.2177734
617,-1.9375,0.1875,-1.125,-0.1928711,0.07177734,0.9780273,0.06835938,-0.1152344,-0.2177734
619,-2.125,0,-1.3125,-0.1816406,0.06396484,0.9858398,0.06689453,-0.1137695,-0.2163086
620,-2.5,-0.3125,-1.3125,-0.1928711,0.06396484,0.9975586,0.06689453,-0.1152344,-0.2163086
622,-2.5,-0.25,-1.5625,-0.1967773,0.05615234,0.9897461,0.06689453,-0.1152344,-0.2163086
623,-2.1875,-0.625,-1.5,-0.1894531,0.06005859,0.9741211,0.06689453,-0.1152344,-0.2177734
625,-2.25,-0.375,-1.375,-0.1816406,0.05224609,0.9897461,0.06689453,-0.1152344,-0.2163086
626,-2.1875,-0.1875,-1.25,-0.1928711,0.06005859,0.9897461,0.06689453,-0.1152344,-0.2163086
628,-2.125,-0.25,-1.375,-0.1816406,0.05615234,0.9858398,0.06982422,-0.1152344,-0.2163086
629,-1.875,-0.25,-1.125,-0.1816406,0.05224609,0.9936523,0.06689453,-0.1152344,-0.2177734
631,-1.9375,-0.4375,-1.3125,-0.1928711,0.05224609,0.9897461,0.06689453,-0.1152344,-0.2177734
632,-1.75,-0.5,-1,-0.1967773,0.04833984,0.9897461,0.06591797,-0.1152344,-0.2148438
634,-1.5625,-0.8125,-0.9375,-0.1855469,0.04833984,0.9819336,0.06689453,-0.1181641,-0.2148438
635,-1.5,-0.8125,-0.875,-0.1894531,0.05615234,0.9897461,0.06689453,-0.1181641,-0.2148438
637,-1.625,-0.25,-0.875,-0.1816406,0.05615234,0.9819336,0.06689453,-0.1152344,-0.2163086
638,-1.375,-0.1875,-0.875,-0.1816406,0.05224609,0.9780273,0.06689453,-0.1137695,-0.2177734
640,-1.5625,-0.3125,-0.875,-0.1855469,0.05224609,0.9858398,0.06689453,-0.1137695,-0.2177734
641,-1.375,0,-0.8125,-0.1855469,0.05615234,0.9936523,0.06689453,-0.112793,-0.2192383
643,-1.5,-0.125,-0.75,-0.1816406,0.04833984,0.9819336,0.06982422,-0.1137695,-0.2192383
644,-1.125,-0.125,-0.8125,-0.1855469,0.05224609,0.9858398,0.06982422,-0.1137695,-0.2192383
646,-1,-0.4375,-0.4375,-0.1894531,0.04833984,0.9897461,0.06689453,-0.112793,-0.2163086
647,-0.75,-0.1875,-0.5625,-0.1894531,0.04833984,0.9858398,0.06835938,-0.1113281,-0.2163086
649,-0.75,-0.5,-0.5,-0.1928711,0.05224609,0.9819336,0.06835938,-0.1113281,-0.2163086
650,-0.625,-0.25,-0.5,-0.1816406,0.05615234,0.9819336,0.06689453,-0.1137695,-0.2177734
652,-0.6875,-0.125,-0.5,-0.1855469,0.05615234,0.9780273,0.06982422,-0.1152344,-0.2177734
653,-0.875,-0.1875,-0.4375,-0.1855469,0.05224609,0.9858398,0.06982422,-0.1152344,-0.2177734
655,-0.5625,0,-0.5625,-0.1894531,0.05224609,0.9936523,0.06982422,-0.1152344,-0.2163086
656,-0.5625,0,-0.5625,-0.1816406,0.04833984,0.9819336,0.06982422,-0.1137695,-0.2192383
658,-0.25,-0.1875,-0.375,-0.1855469,0.05615234,0.9858398,0.06982422,-0.1137695,-0.2192383
659,-0.1875,-0.3125,-0.4375,-0.1816406,0.05615234,0.9858398,0.06835938,-0.1137695,-0.2163086
661,0,-0.3125,-0.375,-0.1855469,0.06005859,0.9897461,0.06689453,-0.112793,-0.2192383
662,0,-0.1875,-0.3125,-0.1777344,0.05224609,0.9780273,0.06689453,-0.112793,-0.2192383
664,0,-0.125,-0.375,-0.1777344,0.04833984,0.9858398,0.06835938,-0.112793,-0.2177734
665,0.125,0,-0.3125,-0.1816406,0.05615234,0.9858398,0.06689453,-0.112793,-0.2148438
667,0,0.3125,-0.125,-0.1738281,0.04443359,0.9936523,0.06689453,-0.112793,-0.2148438
668,0.875,0.375,-0.125,-0.1928711,0.04052734,0.9819336,0.06835938,-0.112793,-0.2163086
670,0.75,-0.625,-0.0625,-0.2006836,0.05224609,0.9897461,0.07080078,-0.1137695,-0.2177734
671,1.0625,-0.375,-0.1875,-0.1816406,0.04443359,0.9975586,0.07080078,-0.1137695,-0.2177734
673,1.125,-0.375,0.25,-0.1894531,0.05615234,0.9819336,0.06835938,-0.1137695,-0.2163086
674,1.125,-0.375,0.125,-0.1855469,0.06005859,0.9819336,0.06835938,-0.1152344,-0.2163086
676,0.5,0.25,0,-0.1699219,0.06005859,0.9780273,0.06835938,-0.1152344,-0.2163086
677,0.9375,0.1875,0,-0.2006836,0.05615234,0.9858398,0.06835938,-0.1152344,-0.2192383
679,0.25,-0.8125,-0.1875,-0.1967773,0.07177734,0.9741211,0.06835938,-0.1137695,-0.2148438
680,-0.0625,-0.1875,-0.375,-0.1777344,0.06787109,0.9897461,0.06835938,-0.1137695,-0.2148438
682,-0.375,-0.25,-0.625,-0.1777344,0.06787109,0.9707031,0.06982422,-0.1137695,-0.2177734
683,-1.1875,-0.25,-0.5625,-0.1777344,0.07568359,0.9819336,0.06982422,-0.1137695,-0.2163086
685,-0.9375,0,-0.75,-0.1967773,0.06396484,0.9975586,0.06982422,-0.1137695,-0.2163086
686,-1.625,-0.9375,-1,-0.1928711,0.06787109,0.9897461,0.06835938,-0.1137695,-0.2192383
688,-1.6875,-0.8125,-0.9375,-0.1777344,0.05615234,0.9858398,0.06835938,-0.1137695,-0.2163086
689,-1.75,-1,-1.125,-0.1855469,0.05224609,0.9897461,0.06835938,-0.1137695,-0.2163086
691,-2,-1.3125,-0.9375,-0.1928711,0.06005859,0.9819336,0.06689453,-0.1152344,-0.2192383
692,-2.4375,-1,-1.1875,-0.1816406,0.06005859,0.9858398,0.06835938,-0.1137695,-0.2163086
694,-2.625,-0.6875,-1.25,-0.1738281,0.06396484,0.9858398,0.06835938,-0.1137695,-0.2163086
695,-2.9375,-0.8125,-1.5,-0.1855469,0.06787109,0.9780273,0.06835938,-0.1137695,-0.2163086
697,-3.25,-0.75,-1.5,-0.1816406,0.06005859,0.9819336,0.06835938,-0.112793,-0.2177734
700,-3.5625,-0.75,-1.4375,-0.1816406,0.06396484,0.9819336,0.06835938,-0.112793,-0.2177734
702,-4.25,0,-1.8125,-0.1738281,0.05224609,0.9858398,0.06982422,-0.112793,-0.2177734
703,-4.125,-0.375,-1.9375,-0.2124023,0.06396484,0.9780273,0.06591797,-0.1113281,-0.2192383
705,-4.5625,-1.375,-1.9375,-0.1894531,0.07958984,0.9936523,0.06591797,-0.1113281,-0.2192383
706,-4.9375,-0.625,-2.0625,-0.1777344,0.05224609,0.9858398,0.06689453,-0.112793,-0.2177734
708,-5,-0.5625,-2.25,-0.1816406,0.05615234,0.9858398,0.06835938,-0.1137695,-0.2192383
709,-5.3125,-0.8125,-2.375,-0.1816406,0.06005859,0.9936523,0.06835938,-0.1137695,-0.2192383
711,-5.375,-0.5625,-2.5,-0.1816406,0.06005859,0.9819336,0.06689453,-0.112793,-0.2177734
712,-5.8125,-0.5625,-2.5,-0.1894531,0.05224609,0.9858398,0.06689453,-0.1113281,-0.2148438
714,-5.8125,-0.625,-2.375,-0.1816406,0.05615234,0.9897461,0.06689453,-0.1113281,-0.2148438
715,-5.875,-0.5,-2.3125,-0.1816406,0.04833984,0.9858398,0.06591797,-0.112793,-0.2163086
717,-5.75,0,-2.3125,-0.1699219,0.03662109,0.9897461,0.06982422,-0.1113281,-0.2163086
718,-5.25,-0.625,-2.25,-0.2084961,0.03320313,0.9975586,0.06982422,-0.1113281,-0.2163086
720,-5.125,-1.625,-2.0625,-0.1894531,0.04833984,0.9897461,0.06835938,-0.112793,-0.2202148
721,-5.125,-0.9375,-1.8125,-0.1738281,0.03662109,0.9858398,0.06689453,-0.112793,-0.2216797
723,-5.3125,-0.875,-2,-0.1621094,0.05224609,0.9741211,0.06689453,-0.112793,-0.2216797
724,-4.8125,-0.5625,-1.9375,-0.1816406,0.03662109,0.9936523,0.06835938,-0.112793,-0.2177734
726,-4.5,-1,-1.75,-0.1894531,0.04052734,0.9897461,0.06835938,-0.112793,-0.2192383
727,-4.0625,-0.625,-1.375,-0.1816406,0.02148438,0.9897461,0.06835938,-0.112793,-0.2192383
729,-3.75,-0.75,-1.1875,-0.1855469,0.02929688,0.9819336,0.06689453,-0.1098633,-0.2192383
730,-3.0625,-1.1875,-1,-0.1894531,0.03662109,0.9975586,0.06689453,-0.1113281,-0.2177734
732,-2.625,-0.875,-0.8125,-0.1894531,0.03662109,0.9897461,0.06689453,-0.1113281,-0.2177734
733,-2.5625,-1.375,-0.625,-0.1928711,0.03662109,0.9897461,0.06835938,-0.1113281,-0.2177734
735,-2.25,-1.375,-0.5,-0.1894531,0.04443359,0.9819336,0.06835938,-0.112793,-0.2163086
736,-2.125,-1.25,-0.5625,-0.1894531,0.04833984,0.9975586,0.06835938,-0.112793,-0.2163086
738,-2.0625,-1.75,-0.25,-0.1928711,0.04443359,0.9858398,0.06835938,-0.1113281,-0.2177734
739,-2.25,-1.75,-0.375,-0.1855469,0.04833984,0.9858398,0.06835938,-0.1113281,-0.2177734
741,-2.4375,-2.0625,-0.4375,-0.1928711,0.04443359,0.9858398,0.06835938,-0.1113281,-0.2177734
742,-2.6875,-2.125,-0.4375,-0.1855469,0.05615234,0.9858398,0.06689453,-0.1113281,-0.2192383
744,-3.0625,-2,-0.625,-0.1816406,0.06396484,0.9858398,0.06835938,-0.1113281,-0.2148438
745,-3.6875,-1.875,-1.0625,-0.1738281,0.06787109,0.9707031,0.06835938,-0.1113281,-0.2148438
747,-4.1875,-1.375,-1.25,-0.1738281,0.05615234,0.9819336,0.06689453,-0.112793,-0.2163086
748,-4.3125,-1.3125,-1.5625,-0.1816406,0.04833984,0.9819336,0.06835938,-0.1113281,-0.2177734
750,-4.4375,-1.125,-1.5,-0.1816406,0.04833984,0.9936523,0.06835938,-0.1113281,-0.2177734
751,-4.5625,-1.3125,-1.6875,-0.1816406,0.04833984,0.9936523,0.06835938,-0.1098633,-0.2192383
753,-4.375,-1,-1.625,-0.1816406,0.04052734,0.9858398,0.06835938,-0.1113281,-0.2177734
754,-4.5625,-0.875,-1.5,-0.1894531,0.02929688,1.001465,0.06835938,-0.1113281,-0.2177734
756,-4.5,-1.9375,-1.5625,-0.1816406,0.03320313,0.9858398,0.06982422,-0.1113281,-0.2202148
757,-4.375,-0.375,-1.5625,-0.1660156,0.03662109,0.9936523,0.06835938,-0.112793,-0.2202148
759,-4.25,-0.75,-1.375,-0.1928711,0.04443359,0.9819336,0.06835938,-0.112793,-0.2202148
760,-4.1875,-1.375,-1.4375,-0.1928711,0.04833984,1.001465,0.06689453,-0.1098633,-0.2192383
762,-4.125,-1,-1.375,-0.1816406,0.04052734,0.9975586,0.06982422,-0.112793,-0.2192383
763,-3.9375,-0.9375,-1.3125,-0.1816406,0.03320313,0.9897461,0.06982422,-0.112793,-0.2192383
765,-3.6875,-1.25,-1.1875,-0.1855469,0.02929688,1.001465,0.06591797,-0.1098633,-0.2192383
766,-3.5625,-1.3125,-1.25,-0.1855469,0.03320313,0.9975586,0.06689453,-0.1098633,-0.2177734
768,-2.875,-1.5625,-1.125,-0.1928711,0.02148438,0.9936523,0.06689453,-0.1098633,-0.2177734
769,-2.6875,-2,-0.6875,-0.1894531,0.02929688,0.9975586,0.06982422,-0.1098633,-0.2192383
771,-2.1875,-2.0625,-0.625,-0.1894531,0.02539063,0.9975586,0.06835938,-0.1098633,-0.2202148
772,-2,-2.4375,-0.1875,-0.1967773,0.01367188,0.9975586,0.06835938,-0.1098633,-0.2202148
774,-1.25,-3.125,0.3125,-0.1967773,0.01367188,0.9858398,0.06835938,-0.1098633,-0.2177734
775,-0.5,-3.75,0.375,-0.1928711,0.02539063,0.9897461,0.06591797,-0.1098633,-0.2202148
777,-0.1875,-4.5,0.625,-0.1894531,0.02929688,0.9936523,0.06591797,-0.1098633,-0.2202148
778,0.125,-4.75,1.125,-0.1855469,0.01757813,0.9897461,0.06591797,-0.112793,-0.2202148
780,1,-5,1.6875,-0.1894531,0.005859375,0.9858398,0.06689453,-0.1113281,-0.2192383
781,2.5,-6.5625,2.4375,-0.2084961,0.001953125,0.9975586,0.06689453,-0.1113281,-0.2192383
783,4.0625,-7.125,3.125,-0.1855469,-0.01318359,1.005371,0.06835938,-0.1098633,-0.2202148
784,6.125,-7,3.9375,-0.1777344,-0.04785156,0.9819336,0.06591797,-0.1074219,-0.2202148
786,8.6875,-7.6875,4.875,-0.1894531,-0.04394531,0.9936523,0.06591797,-0.1074219,-0.2202148
787,10.9375,-7.9375,5.625,-0.1928711,-0.02880859,1.008789,0.06689453,-0.1113281,-0.2192383
789,13.1875,-8.3125,6.625,-0.1928711,-0.04394531,1.001465,0.06591797,-0.1113281,-0.2192383
790,15.6875,-9,7.6875,-0.2045898,-0.04785156,1.012695,0.06591797,-0.1113281,-0.2192383
792,17.75,-9.9375,8.875,-0.1967773,-0.03271484,1.012695,0.06689453,-0.1113281,-0.2177734
793,19.25,-10.625,10.3125,-0.2045898,-0.01708984,1.016602,0.06591797,-0.1098633,-0.2177734
795,20.75,-11.25,11.0625,-0.1928711,-0.005371094,1.005371,0.06591797,-0.1098633,-0.2177734
797,22.1875,-11.875,11.4375,-0.1928711,0.005859375,1.001465,0.06591797,-0.112793,-0.2202148
799,22.625,-12.375,11.5625,-0.1738281,0.03320313,0.9897461,0.06591797,-0.112793,-0.2177734
800,22.625,-12.4375,11.4375,-0.1738281,0.06787109,0.9936523,0.06591797,-0.112793,-0.2177734
802,21.375,-12.4375,11.0625,-0.1699219,0.09130859,0.9819336,0.06689453,-0.1152344,-0.2177734
803,20.5625,-12.4375,10.25,-0.1660156,0.1142578,0.9975586,0.06347656,-0.1137695,-0.2177734
805,18.875,-12.375,9.25,-0.1660156,0.1220703,1.001465,0.06347656,-0.1137695,-0.2177734
806,17.625,-11.8125,8.375,-0.1777344,0.1220703,0.9975586,0.06445313,-0.1137695,-0.2192383
808,16,-12.3125,7.625,-0.1777344,0.1181641,0.9936523,0.06347656,-0.1137695,-0.2192383
809,14.5625,-12.0625,6.875,-0.1582031,0.1108398,0.9897461,0.06347656,-0.1137695,-0.2192383
811,13.3125,-11.625,6.1875,-0.1582031,0.1108398,0.9858398,0.06201172,-0.1137695,-0.2148438
812,12.1875,-11.5625,5.5625,-0.1699219,0.1108398,0.9936523,0.06347656,-0.1152344,-0.2177734
814,11.3125,-11.75,5.125,-0.1660156,0.1069336,0.9936523,0.06347656,-0.1152344,-0.2177734
815,10.4375,-12.3125,4.6875,-0.1699219,0.09912109,0.9975586,0.06201172,-0.1152344,-0.2177734
817,9.625,-11.5625,4.5,-0.1464844,0.09521484,0.9975586,0.06201172,-0.1166992,-0.2177734
818,9.1875,-11.125,4,-0.1542969,0.09130859,0.9897461,0.06201172,-0.1166992,-0.2177734
820,8.5,-10.5625,3.75,-0.1503906,0.08740234,0.9936523,0.06201172,-0.1181641,-0.2163086
821,7.5625,-10.1875,3.4375,-0.1542969,0.09521484,0.9936523,0.06201172,-0.1166992,-0.2177734
823,6.9375,-9.5625,3.0625,-0.1464844,0.09521484,0.9858398,0.06201172,-0.1166992,-0.2177734
824,6.4375,-9.1875,2.875,-0.1464844,0.08740234,0.9858398,0.06054688,-0.1181641,-0.2177734
826,6,-8.5,2.6875,-0.1386719,0.08349609,0.9858398,0.06054688,-0.1152344,-0.2177734
827,5.5,-7.8125,2.5625,-0.1503906,0.07568359,0.9858398,0.06054688,-0.1152344,-0.2177734
829,5.4375,-7.4375,2.5,-0.1464844,0.07958984,0.9780273,0.06054688,-0.1152344,-0.2163086
830,5.1875,-7.0625,2.3125,-0.1542969,0.06787109,0.9858398,0.06054688,-0.1181641,-0.2163086
832,5.4375,-7,2.5,-0.1503906,0.05615234,0.9936523,0.06054688,-0.1181641,-0.2163086
833,5.875,-7.0625,2.6875,-0.1503906,0.05615234,0.9819336,0.05957031,-0.1181641,-0.2202148
835,6.5,-7,2.8125,-0.1503906,0.04052734,0.9936523,0.05957031,-0.1181641,-0.2202148
836,7.4375,-6.875,3.375,-0.1425781,0.02539063,1.001465,0.05957031,-0.1181641,-0.2202148
838,8.4375,-6.5,3.6875,-0.1464844,0.02539063,0.9897461,0.06054688,-0.1181641,-0.2192383
839,9.375,-6.625,4.375,-0.1503906,0.04052734,0.9897461,0.05810547,-0.1191406,-0.2163086
841,10.875,-6.9375,4.9375,-0.1621094,0.02929688,1.001465,0.05810547,-0.1191406,-0.2163086
842,12.25,-7.4375,5.375,-0.1699219,0.02539063,1.016602,0.05957031,-0.1166992,-0.2148438
844,13.875,-8,6.0625,-0.1738281,0.02539063,1.016602,0.05957031,-0.1191406,-0.2133789
845,15.125,-9.0625,6.5625,-0.1699219,0.04052734,1.008789,0.05957031,-0.1191406,-0.2133789
847,15.875,-10,7.0625,-0.1855469,0.04833984,0.9897461,0.06054688,-0.1191406,-0.2177734
848,16.1875,-10.625,7.375,-0.1503906,0.04833984,0.9707031,0.05810547,-0.1181641,-0.2163086
850,15.8125,-10.0625,7.4375,-0.1230469,0.07177734,0.9667969,0.05810547,-0.1181641,-0.2163086
851,15.125,-9.0625,7,-0.1152344,0.09130859,0.9667969,0.05957031,-0.1181641,-0.2163086
853,13.9375,-8.4375,6.625,-0.1230469,0.1069336,0.9628906,0.05957031,-0.1191406,-0.2163086
854,13.3125,-7.8125,6.5,-0.1347656,0.09912109,0.9741211,0.05957031,-0.1191406,-0.2163086
856,12.0625,-7.5,5.75,-0.1347656,0.1108398,0.9858398,0.05664063,-0.1191406,-0.2163086
857,11.25,-6.9375,5.625,-0.1269531,0.1142578,0.9780273,0.05810547,-0.1220703,-0.2148438
859,9.625,-6.625,5.25,-0.1308594,0.1259766,0.9628906,0.05810547,-0.1220703,-0.2148438
860,8.1875,-5.625,4.3125,-0.1152344,0.1337891,0.9628906,0.05810547,-0.1206055,-0.2163086
862,6.5625,-4.5625,3.6875,-0.1152344,0.1298828,0.9707031,0.05664063,-0.1191406,-0.2177734
863,5.1875,-3.75,3.125,-0.1113281,0.1298828,0.9667969,0.05664063,-0.1191406,-0.2177734
865,3.6875,-2.8125,2.6875,-0.1230469,0.1298828,0.9707031,0.05957031,-0.1181641,-0.2163086
866,1.8125,-2,1.9375,-0.1152344,0.1298828,0.9667969,0.05957031,-0.1220703,-0.2192383
868,0.25,-1.75,1.25,-0.1230469,0.1337891,0.9589844,0.05957031,-0.1220703,-0.2192383
869,-1.4375,-0.625,0.5,-0.1230469,0.1337891,0.9707031,0.06054688,-0.1220703,-0.2148438
871,-3,0.25,-0.125,-0.1230469,0.1220703,0.9780273,0.06054688,-0.1220703,-0.2148438
872,-4.125,0.4375,-0.4375,-0.1347656,0.1069336,0.9511719,0.06054688,-0.1220703,-0.2148438
874,-5.4375,0.6875,-0.8125,-0.1152344,0.1069336,0.9589844,0.06054688,-0.1245117,-0.2177734
875,-7,1.9375,-1.5625,-0.1074219,0.1181641,0.9741211,0.06054688,-0.1245117,-0.2163086
877,-8.3125,3.4375,-1.6875,-0.1308594,0.1181641,0.9780273,0.06054688,-0.1245117,-0.2163086
878,-8.9375,3.3125,-2.125,-0.1542969,0.09912109,0.9819336,0.05810547,-0.1245117,-0.2163086
880,-9.125,2.4375,-2.0625,-0.1660156,0.08740234,0.9819336,0.05566406,-0.1245117,-0.2148438
881,-9.0625,2.3125,-1.875,-0.1542969,0.08349609,1.001465,0.05566406,-0.1245117,-0.2148438
883,-8.75,2.6875,-1.9375,-0.1582031,0.06787109,0.9936523,0.05810547,-0.1220703,-0.2148438
884,-8.3125,2.5,-1.75,-0.1582031,0.06787109,0.9975586,0.05664063,-0.1220703,-0.2148438
886,-7.9375,2.625,-1.4375,-0.1347656,0.05615234,0.9897461,0.05664063,-0.1220703,-0.2148438
887,-7.6875,3.3125,-1.0625,-0.1308594,0.05615234,0.9858398,0.05664063,-0.1235352,-0.2163086
889,-7.5625,3.875,-0.875,-0.1230469,0.05615234,0.9780273,0.05810547,-0.1220703,-0.2148438
890,-7.625,5.25,-0.6875,-0.1152344,0.05224609,0.9667969,0.05810547,-0.1220703,-0.2148438
892,-8.0625,7.375,-0.5,-0.1035156,0.03320313,0.9741211,0.05810547,-0.1206055,-0.2163086
895,-8.5625,7.625,-0.75,-0.1191406,0.07958984,0.9433594,0.05664063,-0.1191406,-0.2163086
897,-9.0625,7.9375,-1,-0.1269531,0.09912109,0.9628906,0.05664063,-0.1191406,-0.2163086
898,-10,8.4375,-1.25,-0.1425781,0.09912109,0.9741211,0.05957031,-0.1191406,-0.2177734
900,-11.8125,7.6875,-1.6875,-0.1621094,0.1298828,1.016602,0.05810547,-0.1191406,-0.2177734
901,-12.375,7.5,-2.0625,-0.1464844,0.1030273,0.9741211,0.05810547,-0.1191406,-0.2177734
903,-12.6875,7.875,-2.375,-0.1347656,0.07568359,0.9707031,0.05810547,-0.1206055,-0.2148438
904,-12.6875,7.75,-2.5,-0.1542969,0.07568359,0.9897461,0.05957031,-0.1181641,-0.2177734
906,-12.9375,8.125,-2.5,-0.1464844,0.07958984,0.9936523,0.05957031,-0.1181641,-0.2177734
907,-13.125,7.8125,-2.75,-0.1503906,0.07177734,0.9741211,0.05810547,-0.1191406,-0.2163086
909,-12.875,7.6875,-2.6875,-0.1425781,0.06396484,0.9819336,0.05957031,-0.1181641,-0.2148438
910,-13.0625,8.1875,-2.875,-0.1464844,0.06787109,0.9936523,0.05957031,-0.1181641,-0.2148438
912,-12.6875,8.25,-2.5625,-0.1386719,0.06005859,0.9897461,0.06054688,-0.1166992,-0.2177734
913,-12.3125,7.875,-2.4375,-0.1777344,0.06005859,1.016602,0.05810547,-0.1191406,-0.2177734
915,-12.4375,7.5625,-2.8125,-0.1582031,0.08349609,0.9897461,0.05810547,-0.1191406,-0.2177734
916,-12.375,6.9375,-2.625,-0.1503906,0.06787109,0.9628906,0.05957031,-0.1166992,-0.2163086
918,-11.3125,6.3125,-2.25,-0.1738281,0.04052734,1.005371,0.05957031,-0.1181641,-0.2163086
919,-9.25,4.25,-1.9375,-0.2397461,0.03662109,1.070801,0.05957031,-0.1181641,-0.2163086
921,-9.8125,2.5625,-1.625,-0.1855469,0.06787109,1.016602,0.05957031,-0.1181641,-0.2163086
922,-8.5625,2.5625,-1.4375,-0.1503906,0.03662109,0.9741211,0.06054688,-0.1166992,-0.2177734
924,-7.875,2.125,-1.0625,-0.1621094,0.04833984,1.012695,0.06054688,-0.1166992,-0.2177734
925,-7,2.6875,-1,-0.1621094,0.06005859,1.02832,0.06054688,-0.1166992,-0.2177734
927,-6.25,3,-1.25,-0.1542969,0.06396484,1.005371,0.06054688,-0.1166992,-0.2148438
928,-5.5625,2.9375,-1,-0.1542969,0.04443359,0.9936523,0.06054688,-0.1166992,-0.2148438
930,-4.6875,3.125,-0.875,-0.1660156,0.04833984,1.008789,0.06201172,-0.1152344,-0.2163086
931,-3.375,3,-0.6875,-0.1699219,0.04052734,1.020508,0.06054688,-0.1152344,-0.2177734
933,-3.4375,2.6875,-0.9375,-0.1582031,0.08349609,0.9819336,0.06054688,-0.1152344,-0.2177734
934,-3.625,2.8125,-1.5,-0.1464844,0.04833984,0.9819336,0.06201172,-0.1181641,-0.2163086
936,-2.3125,2.625,-0.75,-0.1621094,0.06396484,1.008789,0.06201172,-0.1152344,-0.2163086
937,-3.0625,3.4375,-1.75,-0.1660156,0.07958984,1.012695,0.06201172,-0.1152344,-0.2163086
939,-2.375,1.8125,-2.0625,-0.2280273,0.03662109,0.9897461,0.06054688,-0.1152344,-0.2202148
940,-3.3125,0,-3.375,-0.1542969,0.1650391,0.9511719,0.06201172,-0.1166992,-0.2192383
942,-4.5625,0.9375,-4.625,-0.2124023,0.1030273,1.036133,0.06201172,-0.1166992,-0.2192383
943,-4.8125,-1.9375,-5.25,-0.1928711,0.02148438,0.9897461,0.06201172,-0.1152344,-0.2163086
945,-2.9375,-0.0625,-5.1875,-0.04492188,0.01757813,0.9780273,0.06201172,-0.1166992,-0.2177734
946,-1.75,5.3125,-5.5625,-0.07617188,0.05224609,1.074707,0.06201172,-0.1166992,-0.2177734
948,-2.3125,9.6875,-5.5625,-0.1269531,0.05224609,1.05127,0.06201172,-0.1137695,-0.2192383
949,-1.6875,9,-6.1875,-0.1035156,0.06396484,0.9355469,0.06201172,-0.1152344,-0.2192383
951,-0.875,10.0625,-5.6875,-0.1152344,0.06396484,0.9897461,0.06201172,-0.1152344,-0.2192383
952,0,13.5,-4.5625,-0.1152344,0.04052734,1.055176,0.05957031,-0.1137695,-0.2148438
954,1.125,16.1875,-3.8125,-0.1582031,0.009765625,1.032227,0.06347656,-0.1152344,-0.2163086
955,2.1875,15.0625,-2.5,-0.1928711,0.06005859,0.9780273,0.06347656,-0.1152344,-0.2163086
957,1.9375,13.75,-2.875,-0.1855469,0.05224609,0.9897461,0.06201172,-0.1137695,-0.2163086
958,2.5625,14.875,-1.9375,-0.1542969,0.02929688,1.047363,0.06347656,-0.1152344,-0.2202148
960,3.5,16.4375,-0.9375,-0.1660156,0.05224609,1.032227,0.06347656,-0.1152344,-0.2202148
961,3.6875,16,0.125,-0.1855469,0.05224609,1.001465,0.06201172,-0.1137695,-0.2163086
963,3.875,15.4375,0.9375,-0.2124023,0.06005859,1.005371,0.06201172,-0.1152344,-0.2163086
964,4,13.625,1.0625,-0.1967773,0.08349609,0.9897461,0.06201172,-0.1152344,-0.2163086
966,4.875,13,1.9375,-0.1928711,0.05224609,1.012695,0.06445313,-0.1166992,-0.2192383
967,4.5625,11.4375,5.25,-0.2084961,0.01367188,0.9780273,0.06445313,-0.1152344,-0.2177734
969,4.75,10.125,2.9375,-0.2084961,0.06396484,0.9975586,0.06445313,-0.1152344,-0.2177734
970,5.1875,10.1875,4.4375,-0.1816406,0.06005859,1.016602,0.06445313,-0.112793,-0.2163086
972,5.5,10.4375,5.375,-0.1660156,0.07177734,1.008789,0.06347656,-0.1152344,-0.2192383
973,6.3125,11.875,6.125,-0.1542969,0.07177734,1.024414,0.06347656,-0.1152344,-0.2192383
975,7.125,13.625,6.125,-0.1503906,0.06005859,1.043945,0.06591797,-0.1166992,-0.2148438
976,8.3125,15.8125,5.8125,-0.1503906,0.03662109,1.047363,0.06445313,-0.1166992,-0.2163086
978,9.625,17.5625,4.4375,-0.1699219,0.02929688,1.032227,0.06445313,-0.1166992,-0.2163086
979,11.625,17.8125,3.75,-0.1621094,0.06005859,1.024414,0.06689453,-0.1166992,-0.2163086
981,13.75,19.3125,1.9375,-0.1464844,0.02539063,1.020508,0.06689453,-0.1166992,-0.2163086
982,16.25,21.9375,1.125,-0.1152344,0.01757813,1.047363,0.06689453,-0.1166992,-0.2163086
984,17.75,27,0.6875,-0.04101563,0.05224609,1.055176,0.06835938,-0.1166992,-0.2133789
985,18.75,35.4375,-0.5,0.0009765625,0.09130859,1.085938,0.06689453,-0.1166992,-0.2148438
987,18.875,43.8125,-1.125,-0.002441406,0.07177734,1.085938,0.06689453,-0.1166992,-0.2148438
988,18.6875,54.0625,-1.875,0.06347656,0.1181641,1.101563,0.06982422,-0.1181641,-0.2133789
990,16.6875,71.0625,-5.25,0.1567383,0.2075195,1.178711,0.07226563,-0.1181641,-0.2133789
992,12.625,93.3125,-10,0.246582,0.2734375,1.255859,0.07226563,-0.1181641,-0.2133789
994,10.875,121.9375,-14.5625,0.3203125,0.2387695,1.282715,0.07373047,-0.1181641,-0.2133789
995,11.0625,148.1875,-19.6875,0.3242188,0.1806641,1.194336,0.07470703,-0.1181641,-0.2124023
997,11.875,172.4375,-24,0.2543945,0.1879883,1.205566,0.07470703,-0.1181641,-0.2124023
998,16.6875,194.5,-26.375,0.230957,0.04833984,1.178711,0.08154297,-0.1191406,-0.2094727
1000,26.6875,223.3125,-26.0625,0.6630859,-0.1064453,1.259766,0.08544922,-0.1166992,-0.2094727
1001,61.75,298.1875,-26.5625,1.465332,-0.6689453,1.918945,0.08544922,-0.1166992,-0.2094727
1003,102.1875,385.75,-22.6875,1.800293,-0.9482422,1.965332,0.09423828,-0.1181641,-0.2080078
1004,150.0625,467.6875,-25.5625,1.052246,-0.9560547,2.258301,0.1020508,-0.1191406,-0.199707
1006,178.6875,530.5,-46.125,1.753418,-0.168457,2.543457,0.1020508,-0.1191406,-0.199707
1007,178.875,639.25,-75.9375,3.71582,0.7856445,3.819824,0.1113281,-0.1259766,-0.1928711
1009,183,706.3125,-85.0625,4.26123,0.394043,5.412109,0.1254883,-0.128418,-0.1835938
1010,224.0625,782.6875,-71.1875,5.109863,-0.5561523,4.768066,0.1254883,-0.128418,-0.1835938
1012,228.5625,792,-74,4.770996,-0.1567383,5.35791,0.1411133,-0.1328125,-0.1694336
1013,165.875,717.875,-98.8125,-0.1152344,1.329102,5.924805,0.1591797,-0.1352539,-0.1586914
1015,68.875,458.1875,-104,-3.405762,1.748047,5.354004,0.1591797,-0.1352539,-0.1586914
1016,-9.875,169.625,-89.5,-3.41748,1.961914,5.103516,0.1694336,-0.1337891,-0.1450195
1018,-66.3125,-21.4375,-69.25,-0.7539063,1.538574,4.498047,0.1723633,-0.1328125,-0.1420898
1019,-97.4375,-59.4375,-54.0625,2.395996,1.092285,3.407227,0.1723633,-0.1328125,-0.1420898
1021,-116.375,-3.0625,-45.9375,4.015625,0.7353516,2.32373,0.1723633,-0.1328125,-0.1435547
1022,-131.625,73.0625,-43.375,3.988281,0.8364258,1.47168,0.1723633,-0.1274414,-0.1474609
1024,-136.875,113.3125,-36.25,2.968262,0.4018555,1.074707,0.1723633,-0.1274414,-0.1474609
1025,-134.9375,115.875,-36,1.979004,0.1376953,1.032227,0.1748047,-0.1259766,-0.1464844
1027,-122.4375,95,-37.4375,1.496582,-0.02490234,1.113281,0.1772461,-0.1220703,-0.1450195
1028,-106.625,64.1875,-42.3125,1.410645,-0.05957031,1.205566,0.1772461,-0.1220703,-0.1450195
1030,-88.125,35.6875,-47.75,1.589844,-0.08691406,1.251953,0.1787109,-0.1206055,-0.1474609
1031,-68,15.0625,-52.5625,1.866211,-0.07128906,1.29834,0.1787109,-0.1191406,-0.1450195
1033,-49.9375,2,-55.5625,2.01416,0.005859375,1.321289,0.1787109,-0.1191406,-0.1450195
1034,-38.0625,-8.3125,-56.375,2.080566,0.1767578,1.302246,0.1796875,-0.112793,-0.1464844
1036,-34.25,-19.6875,-52.75,2.018066,0.3354492,1.259766,0.1796875,-0.1137695,-0.1474609
1037,-36,-32.9375,-46,1.936523,0.4677734,1.194336,0.1796875,-0.1137695,-0.1474609
1039,-41.6875,-47.375,-36.9375,1.862305,0.5761719,1.132324,0.1787109,-0.112793,-0.1489258
1040,-49.125,-61.3125,-26.9375,1.807617,0.6152344,1.08252,0.1796875,-0.1113281,-0.1489258
1042,-55.375,-73.8125,-16.875,1.76123,0.5800781,1.043945,0.1796875,-0.1113281,-0.1489258
1043,-57.875,-86.0625,-7.75,1.745605,0.5024414,1.036133,0.1787109,-0.1113281,-0.1503906
1045,-55.875,-96.8125,-1.125,1.722168,0.3862305,1.040039,0.1772461,-0.1088867,-0.1533203
1046,-50.375,-107.3125,3.5,1.69873,0.296875,1.078613,0.1772461,-0.1088867,-0.1533203
1048,-42.1875,-117.6875,5.8125,1.628906,0.2114258,1.13623,0.1733398,-0.1074219,-0.1547852
1049,-31.6875,-129.0625,7.4375,1.585938,0.1728516,1.170898,0.1708984,-0.1074219,-0.1586914
1051,-20.125,-140.875,8.375,1.535156,0.1494141,1.232422,0.1708984,-0.1074219,-0.1586914
1052,-10.4375,-152.75,9.375,1.484863,0.1611328,1.302246,0.1694336,-0.105957,-0.1616211
1054,-2.875,-165,11.5,1.398926,0.1958008,1.329102,0.1669922,-0.105957,-0.1655273
1055,0.875,-177.5,15.0625,1.301758,0.2583008,1.371582,0.1669922,-0.105957,-0.1655273
1057,1.3125,-190.125,19.4375,1.204102,0.296875,1.386719,0.1630859,-0.105957,-0.168457
1058,-0.875,-202.875,23.9375,1.11084,0.3203125,1.394531,0.1606445,-0.105957,-0.168457
1060,-4.8125,-214.875,28.625,1.001953,0.3046875,1.398438,0.1606445,-0.105957,-0.168457
1061,-9.125,-226.25,32.5625,0.9160156,0.2617188,1.379395,0.1552734,-0.105957,-0.1723633
1063,-12.875,-237.0625,35.1875,0.8227539,0.2075195,1.348145,0.1499023,-0.105957,-0.175293
1064,-15.625,-247.1875,36.5625,0.7407227,0.1376953,1.29834,0.1499023,-0.105957,-0.175293
1066,-17.25,-255.5625,36.25,0.6708984,0.06787109,1.236328,0.1459961,-0.1088867,-0.1791992
1067,-17.3125,-262.1875,34.625,0.6357422,0.01757813,1.217285,0.1396484,-0.1074219,-0.1835938
1069,-15.3125,-267.0625,32.25,0.5737305,-0.05957031,1.178711,0.1396484,-0.1074219,-0.1835938
1070,-12.375,-271.1875,28.6875,0.519043,-0.09863281,1.166992,0.1347656,-0.105957,-0.1860352
1072,-8.6875,-273.9375,24.625,0.487793,-0.121582,1.19043,0.1293945,-0.1088867,-0.1904297
1073,-4.875,-276.0625,20.625,0.440918,-0.09863281,1.221191,0.1293945,-0.1088867,-0.1904297
1075,-1.5625,-277.6875,18.0625,0.3867188,-0.05566406,1.263672,0.1230469,-0.1074219,-0.1943359
1076,0.25,-279.25,16.75,0.3125,0.009765625,1.30957,0.1152344,-0.105957,-0.199707
1078,1.75,-280.9375,16.375,0.2192383,0.07177734,1.348145,0.1152344,-0.105957,-0.199707
1079,3.6875,-282.1875,17.3125,0.1142578,0.09912109,1.394531,0.1113281,-0.1044922,-0.2041016
1081,5.6875,-284,19.5625,0.004882813,0.1494141,1.414063,0.1044922,-0.1044922,-0.2050781
1082,7.75,-286.125,22.5625,-0.09570313,0.1728516,1.459961,0.1044922,-0.1044922,-0.2050781
1084,9.75,-288.6875,26.375,-0.1582031,0.2036133,1.494629,0.09570313,-0.105957,-0.2124023
1085,11.9375,-292.5625,30.6875,-0.2397461,0.2075195,1.548828,0.08935547,-0.1074219,-0.2124023
1087,12.875,-297.375,35.25,-0.3061523,0.2114258,1.602539,0.08935547,-0.1074219,-0.2124023
1090,12.625,-302.5625,39.375,-0.3486328,0.1958008,1.648926,0.08251953,-0.1074219,-0.2177734
1092,11.875,-308.375,42.5,-0.3374023,0.1611328,1.691406,0.07373047,-0.1088867,-0.2148438
1093,10.8125,-313.3125,44.4375,-0.3139648,0.1220703,1.722168,0.07373047,-0.1088867,-0.2148438
1095,9.25,-316.9375,45.0625,-0.2280273,0.07958984,1.760742,0.06689453,-0.1088867,-0.2192383
1096,8.75,-319.375,44.375,-0.1816406,0.01757813,1.833984,0.05810547,-0.1088867,-0.2216797
1098,9.75,-322.0625,42.25,-0.1542969,-0.04394531,1.895996,0.05810547,-0.1088867,-0.2216797
1099,12.1875,-325.1875,39.1875,-0.1582031,-0.09082031,1.961426,0.04882813,-0.1088867,-0.2216797
1101,15.25,-330.0625,36.125,-0.1738281,-0.1064453,2.045898,0.04101563,-0.1088867,-0.2216797
1102,18,-334.8125,32.75,-0.1738281,-0.1064453,2.115723,0.04101563,-0.1088867,-0.2216797
1104,19.5,-339.3125,30.125,-0.1816406,-0.08300781,2.204102,0.03320313,-0.1074219,-0.2260742
1105,17.75,-344.25,28.5,-0.2006836,-0.03271484,2.304688,0.02441406,-0.1098633,-0.2260742
1107,12.625,-350.0625,27.3125,-0.2592773,0.04443359,2.362305,0.02441406,-0.1098633,-0.2260742
1108,5.75,-356.25,26.4375,-0.3217773,0.1030273,2.381348,0.01513672,-0.1113281,-0.2260742
1110,-0.625,-361.125,26.0625,-0.3603516,0.1376953,2.400879,0.006347656,-0.1088867,-0.2260742
1111,-4.9375,-364.1875,25.625,-0.4228516,0.1376953,2.358398,0.006347656,-0.1088867,-0.2260742
1113,-5.125,-366.0625,25.1875,-0.4931641,0.1142578,2.289063,-0.00390625,-0.1113281,-0.2231445
1114,-2,-366.125,24.4375,-0.5864258,0.1069336,2.234863,-0.01269531,-0.1074219,-0.2231445
1116,2.9375,-365.0625,23.875,-0.6875,0.1376953,2.154297,-0.01269531,-0.1074219,-0.2231445
1117,8.75,-361.75,23.5625,-0.815918,0.1728516,2.034668,-0.02050781,-0.1088867,-0.2216797
1119,15.9375,-356.8125,23.125,-0.9448242,0.1611328,1.90332,-0.02978516,-0.1098633,-0.2202148
1120,26.4375,-350.5,23.4375,-1.104492,0.1494141,1.741699,-0.02978516,-0.1098633,-0.2202148
1122,36.625,-341.5,24.25,-1.205566,0.2036133,1.625977,-0.03857422,-0.1098633,-0.2192383
1123,45.25,-328.5,25.6875,-1.260254,0.28125,1.57959,-0.04785156,-0.1088867,-0.2163086
1125,50.8125,-312.1875,29.125,-1.318359,0.3901367,1.664551,-0.04785156,-0.1088867,-0.2163086
1126,51.5625,-294.625,35.125,-1.419922,0.5415039,1.78418,-0.05810547,-0.1098633,-0.2133789
1128,47.4375,-280.6875,43.0625,-1.610352,0.6811523,1.872559,-0.06445313,-0.1113281,-0.2133789
1129,40,-271.1875,51.25,-1.80127,0.7626953,1.888184,-0.06445313,-0.1113281,-0.2133789
1131,33.375,-263.125,59.0625,-1.941406,0.7626953,1.872559,-0.06982422,-0.112793,-0.2080078
1132,29.6875,-253.125,66.3125,-2,0.7041016,1.853516,-0.07617188,-0.1137695,-0.206543
1134,29.125,-239,72.25,-2.058105,0.6420898,1.853516,-0.07617188,-0.1137695,-0.206543
1135,29.125,-223.875,76.6875,-2.13623,0.6113281,1.911133,-0.08398438,-0.112793,-0.2041016
1137,28.375,-209.75,79.0625,-2.233398,0.5957031,1.976563,-0.08935547,-0.1113281,-0.2026367
1138,25,-198.4375,79.75,-2.416504,0.5722656,2.084473,-0.08935547,-0.1113281,-0.2026367
1140,19.375,-192.5,79.125,-2.615234,0.5336914,2.111816,-0.09423828,-0.1137695,-0.2011719
1141,11.6875,-189.75,75.875,-2.794434,0.4599609,2.061523,-0.09960938,-0.1113281,-0.1972656
1143,4.5625,-186.5625,69.875,-2.922852,0.3320313,1.95752,-0.09960938,-0.1113281,-0.1972656
1144,-1.3125,-180.8125,61,-3.004395,0.199707,1.780273,-0.1049805,-0.1098633,-0.1958008
1146,-3.875,-171.25,50.0625,-3.062988,0.06005859,1.599121,-0.1098633,-0.1113281,-0.1943359
1147,-2.4375,-157.3125,37.75,-3.144531,-0.06347656,1.459961,-0.1098633,-0.1113281,-0.1943359
1149,0.6875,-141.9375,24.5,-3.276855,-0.1103516,1.329102,-0.1137695,-0.1088867,-0.1914063
1150,3.5625,-126.9375,12.875,-3.428711,-0.09472656,1.19043,-0.1191406,-0.1098633,-0.1904297
1152,5.125,-111,3.1875,-3.561523,-0.01708984,1.05127,-0.1191406,-0.1098633,-0.1904297
1153,3.5,-92.4375,-3.75,-3.658691,0.06787109,0.9125977,-0.1191406,-0.1113281,-0.1875
1155,-0.1875,-71.625,-8.9375,-3.779297,0.1376953,0.7543945,-0.1230469,-0.1098633,-0.1845703
1156,-4.4375,-50.25,-12,-3.907715,0.1767578,0.6005859,-0.1230469,-0.1098633,-0.1845703
1158,-7.25,-28,-14.75,-4.01709,0.1879883,0.515625,-0.1201172,-0.1113281,-0.1875
1159,-8.8125,-4.75,-16,-4.067383,0.1259766,0.4692383,-0.1230469,-0.1098633,-0.1889648
1161,-9.3125,17,-17.875,-4.145508,0.1572266,0.4038086,-0.1230469,-0.1098633,-0.1889648
1162,-11.4375,37.875,-19.625,-4.168945,0.1572266,0.3613281,-0.1230469,-0.112793,-0.1875
1164,-14.4375,59.125,-22,-4.176758,0.1572266,0.3110352,-0.121582,-0.1088867,-0.1860352
1165,-16.4375,78.3125,-25.375,-4.157227,0.1220703,0.3071289,-0.121582,-0.1088867,-0.1860352
1167,-16.625,93.9375,-26.375,-4.055664,0.1142578,0.3188477,-0.1201172,-0.1098633,-0.1889648
1168,-22.375,203.4375,-30.8125,-4.27002,0.6152344,0.1108398,-0.1176758,-0.1098633,-0.1904297
1170,-40.1875,268.875,41.25,-4.215332,0.8945313,-2.710938,-0.1176758,-0.1098633,-0.1904297
1171,-83.75,64.5625,40.0625,-3.526367,1.969238,-4.642578,-0.112793,-0.1098633,-0.1928711
1173,-125.5625,125.9375,60,-0.6757813,-0.5717773,1.394531,-0.112793,-0.1074219,-0.1943359
1174,-32.1875,60.125,59.9375,1.34082,-1.386719,-1.584961,-0.112793,-0.1074219,-0.1943359
1176,85.125,145.375,22.625,5.876953,-1.918457,-1.612305,-0.1088867,-0.1044922,-0.1958008
1177,151.5,490.1875,-12.5625,7.94873,-0.5214844,3.106445,-0.1074219,-0.1044922,-0.1958008
1179,86.9375,803.875,-26,5.203125,1.243652,3.457031,-0.1074219,-0.1044922,-0.1958008
1180,51.75,783.5625,-19.625,-2.439941,0.7314453,3.704102,-0.09033203,-0.1088867,-0.2050781
1182,48.125,555.3125,1.375,-6.470215,-0.3198242,3.900391,-0.07373047,-0.1098633,-0.2094727
1183,59.75,315.0625,15.5625,-6.072754,-0.331543,4.305176,-0.07373047,-0.1098633,-0.2094727
1185,43.5,171.5625,12.125,-3.44043,-0.4941406,4.008789,-0.06591797,-0.1113281,-0.2133789
1187,44.3125,122.0625,1.875,-0.862793,-1.336426,3.29541,-0.05957031,-0.1137695,-0.2148438
1189,60.3125,120.3125,-13.125,0.4604492,-1.84082,2.686035,-0.05957031,-0.1137695,-0.2148438
1190,75.625,152.3125,-35.25,1.659668,-1.352051,2.06543,-0.05664063,-0.1152344,-0.2133789
1192,83.125,204.1875,-53.375,1.858398,-0.7700195,1.375488,-0.05175781,-0.1152344,-0.2163086
1193,89.25,244.1875,-58.5,1.130371,-0.1567383,0.6699219,-0.05175781,-0.1152344,-0.2163086
1195,99,261.9375,-53.125,0.2036133,0.378418,0.2763672,-0.04492188,-0.1206055,-0.2148438
1196,101.0625,253.5,-38.375,-0.3603516,0.824707,0.203125,-0.04003906,-0.1220703,-0.2133789
1198,144.875,187,96.875,1.566406,1.356445,1.918945,-0.04003906,-0.1220703,-0.2133789
1199,103.3125,325.8125,85.25,4.420898,3.510254,5.419434,-0.03466797,-0.1259766,-0.2133789
1201,-1.1875,481.5,-49.0625,1.636719,1.655273,5.238281,-0.02685547,-0.1274414,-0.2148438
1202,14.6875,380.4375,-30.125,-4.526855,-0.7504883,0.4306641,-0.02685547,-0.1274414,-0.2148438
1204,34.375,150.75,21.4375,-3.92334,-0.6611328,0.480957,-0.01660156,-0.1274414,-0.2163086
1205,43,75.125,8.5625,-1.022461,0.001953125,1.768555,-0.01269531,-0.1298828,-0.2177734
1207,31.5625,169.875,-8.75,0.9824219,0.3666992,3.133301,-0.01269531,-0.1298828,-0.2177734
1208,21.5,168.6875,-10.375,-0.08789063,0.347168,0.534668,-0.01025391,-0.128418,-0.2148438
1210,23.9375,144.3125,-9.6875,-0.1386719,0.1806641,0.4921875,-0.006347656,-0.128418,-0.2192383
1211,20.8125,153.875,-15.25,0.262207,0.3203125,1.502441,-0.006347656,-0.128418,-0.2192383
1213,8.9375,169.875,-17.5625,-0.09570313,0.3823242,1.648926,-0.002441406,-0.1298828,-0.2177734
1214,5.625,148,-16.75,-0.6293945,0.1572266,1.151855,0.0009765625,-0.1313477,-0.2177734
1216,7.75,119.5625,-13.875,-0.6098633,0.1069336,1.124512,0.0009765625,-0.1313477,-0.2177734
1217,3.125,103.875,-12.8125,-0.3374023,0.2583008,1.15918,0.003417969,-0.1328125,-0.2163086
1219,-4.375,99.125,-13.125,-0.1542969,0.3510742,1.074707,0.006347656,-0.1313477,-0.2192383
1220,-11.8125,95.5,-15.1875,-0.08398438,0.3354492,0.9667969,0.006347656,-0.1313477,-0.2192383
1222,-18.5625,93.6875,-17.8125,-0.04882813,0.3203125,0.9858398,0.01025391,-0.1337891,-0.2177734
1223,-23.8125,93.75,-19.3125,-0.08007813,0.2929688,1.08252,0.01123047,-0.1313477,-0.2163086
1225,-27.4375,90.5,-19.875,-0.1855469,0.2270508,1.147949,0.01123047,-0.1313477,-0.2163086
1226,-28.4375,81.625,-19.0625,-0.3139648,0.1611328,1.197754,0.01416016,-0.1298828,-0.2177734
1228,-27.1875,72,-17.625,-0.3759766,0.1069336,1.197754,0.01806641,-0.1298828,-0.2192383
1229,-25.9375,61.5625,-16.0625,-0.3256836,0.1069336,1.182617,0.01806641,-0.1298828,-0.2192383
1231,-24.6875,55.125,-15.0625,-0.2358398,0.1220703,1.166992,0.01660156,-0.1274414,-0.2192383
1232,-23.8125,51.625,-14.625,-0.1347656,0.1298828,1.101563,0.01904297,-0.128418,-0.2163086
1234,-22.9375,50.3125,-14.3125,-0.1113281,0.1108398,1.08252,0.01904297,-0.128418,-0.2163086
1235,-22.125,49.3125,-13.75,-0.1152344,0.1181641,1.089844,0.02197266,-0.128418,-0.2192383
1237,-21,47.375,-13.375,-0.1777344,0.1069336,1.101563,0.02197266,-0.1274414,-0.2177734
1238,-20.0625,41.9375,-12.375,-0.2084961,0.1069336,1.109375,0.02197266,-0.1274414,-0.2177734
1240,-17.875,35.25,-10.9375,-0.2475586,0.07568359,1.140137,0.02294922,-0.1259766,-0.2177734
1241,-15.5625,29.375,-9.625,-0.2319336,0.04833984,1.13623,0.02587891,-0.1245117,-0.2177734
1243,-12.8125,24.75,-7.8125,-0.2006836,0.04443359,1.13623,0.02587891,-0.1245117,-0.2177734
1244,-11,20.4375,-6.75,-0.1816406,0.07177734,1.109375,0.02587891,-0.1259766,-0.2192383
1246,-9.75,16.8125,-5.8125,-0.1816406,0.1030273,1.101563,0.02685547,-0.1274414,-0.2216797
1247,-9.25,13.125,-5.5625,-0.1621094,0.09521484,1.078613,0.02685547,-0.1274414,-0.2216797
1249,-8.0625,10.375,-4.875,-0.1386719,0.08349609,1.062988,0.02685547,-0.1259766,-0.2177734
1250,-6.9375,8.6875,-4.1875,-0.1074219,0.07958984,1.05127,0.02832031,-0.1259766,-0.2177734
1252,-5.5,7.4375,-3.6875,-0.09960938,0.06396484,1.032227,0.02832031,-0.1259766,-0.2177734
1253,-3.875,6.6875,-3.25,-0.09570313,0.07958984,1.047363,0.02587891,-0.1259766,-0.2192383
1255,-2.875,6,-2.8125,-0.08007813,0.07958984,1.020508,0.02685547,-0.1235352,-0.2177734
1256,-1.875,5.5625,-2.625,-0.06835938,0.08740234,1.020508,0.02685547,-0.1235352,-0.2177734
1258,-1.125,6,-2.4375,-0.05664063,0.08349609,0.9936523,0.02685547,-0.1259766,-0.2177734
1259,-0.1875,6.75,-2.4375,-0.02978516,0.08349609,0.9936523,0.02587891,-0.1245117,-0.2216797
1261,0.4375,9.125,-2.375,-0.01806641,0.07568359,1.005371,0.02587891,-0.1245117,-0.2216797
1262,0.625,10.1875,-2.625,-0.01806641,0.09912109,0.9589844,0.02929688,-0.1259766,-0.2216797
1264,0.3125,11.5625,-2.875,-0.006347656,0.1069336,0.9550781,0.02685547,-0.1235352,-0.2202148
1265,-0.25,13.875,-3.375,-0.006347656,0.1376953,0.9667969,0.02685547,-0.1235352,-0.2202148
1267,-1.9375,15.5625,-3.875,-0.01806641,0.1298828,0.9780273,0.02832031,-0.1235352,-0.2216797
1268,-2.625,16.3125,-4.3125,-0.02978516,0.1142578,0.9780273,0.02832031,-0.1235352,-0.2202148
1270,-3.3125,17.75,-4.625,-0.02197266,0.1108398,0.9628906,0.02832031,-0.1235352,-0.2202148
1271,-4.125,19.5,-5.0625,-0.01416016,0.1108398,0.9667969,0.02929688,-0.1245117,-0.2192383
1273,-4.75,21.4375,-5.25,-0.002441406,0.09912109,0.9550781,0.02832031,-0.1245117,-0.2192383
1274,-5.0625,24.3125,-5.5,-0.006347656,0.09912109,0.9472656,0.02832031,-0.1245117,-0.2192383
1276,-4.9375,26.4375,-5.8125,-0.006347656,0.09521484,0.9550781,0.03076172,-0.1259766,-0.2177734
1277,-5.3125,28.5625,-6,-0.02587891,0.08740234,0.9550781,0.02929688,-0.1259766,-0.2192383
1279,-4.9375,30.25,-5.9375,-0.02587891,0.07958984,0.9628906,0.02929688,-0.1259766,-0.2192383
1280,-5,32.125,-6.0625,-0.03369141,0.09912109,0.9550781,0.03076172,-0.1235352,-0.2216797
1282,-5.4375,34.0625,-6.375,-0.02197266,0.1030273,0.9394531,0.03222656,-0.1245117,-0.2231445
1285,-5.9375,36.125,-6.5,-0.01025391,0.09130859,0.9243164,0.03222656,-0.1245117,-0.2231445
1287,-6,38.9375,-6.9375,0.0009765625,0.07177734,0.9321289,0.03320313,-0.1220703,-0.2177734
1288,-6.125,41.6875,-6.9375,-0.01025391,0.06396484,0.9355469,0.03320313,-0.1220703,-0.2192383
1290,-5.625,44.5625,-6.75,-0.02197266,0.04443359,0.9433594,0.03320313,-0.1220703,-0.2192383
1291,-5.6875,46.0625,-6.75,-0.05273438,0.05224609,0.9243164,0.03613281,-0.1235352,-0.2192383
1293,-6.1875,46.4375,-6.0625,-0.06445313,0.06005859,0.9282227,0.03710938,-0.1220703,-0.2177734
1294,-6.6875,47.5,-5.75,-0.07226563,0.07568359,0.9394531,0.03710938,-0.1220703,-0.2177734
1296,-7.6875,49.125,-6.125,-0.07617188,0.1069336,0.9628906,0.03710938,-0.1235352,-0.2192383
1297,-8.9375,49.5625,-6.4375,-0.1074219,0.1298828,0.9628906,0.04003906,-0.1220703,-0.2177734
1299,-9.875,48.875,-6.875,-0.1347656,0.1376953,0.9707031,0.04003906,-0.1220703,-0.2177734
1300,-11.0625,47.3125,-7,-0.1699219,0.1298828,1.008789,0.03710938,-0.1220703,-0.2192383
1302,-12.5,45.4375,-7.3125,-0.1738281,0.1220703,1.008789,0.04248047,-0.1191406,-0.2177734
1303,-13.3125,43.625,-7.25,-0.1699219,0.1259766,1.001465,0.04248047,-0.1191406,-0.2177734
1305,-13.8125,42.0625,-7.3125,-0.1738281,0.1298828,1.020508,0.04394531,-0.1235352,-0.2177734
1306,-15.5625,40.1875,-7.1875,-0.1855469,0.1298828,1.036133,0.04638672,-0.1206055,-0.2192383
1308,-16.125,38.5,-7.5625,-0.1777344,0.1142578,1.012695,0.04638672,-0.1206055,-0.2192383
1309,-16.8125,36.4375,-7.1875,-0.1660156,0.09912109,0.9897461,0.04638672,-0.1235352,-0.2192383
1311,-17.5625,35.4375,-7.25,-0.1660156,0.1142578,1.020508,0.04394531,-0.1235352,-0.2192383
1312,-18.125,35,-7.4375,-0.1582031,0.09912109,1.016602,0.04394531,-0.1235352,-0.2192383
1314,-18.625,33.625,-7.1875,-0.1699219,0.1108398,0.9975586,0.04492188,-0.1235352,-0.2202148
1315,-19.0625,31.0625,-7.125,-0.1967773,0.1181641,1.02832,0.04492188,-0.1206055,-0.2177734
1317,-18.875,28.3125,-7.3125,-0.2084961,0.1108398,1.062988,0.04492188,-0.1206055,-0.2177734
1318,-19.875,26.875,-7.5,-0.1928711,0.1220703,1.040039,0.04785156,-0.1206055,-0.2192383
1320,-19.5625,25.5625,-7.8125,-0.1699219,0.09521484,1.005371,0.04882813,-0.1206055,-0.2202148
1321,-18.625,22.375,-7.125,-0.2475586,0.09130859,1.066895,0.04882813,-0.1206055,-0.2202148
1323,-18.0625,19.3125,-7,-0.2319336,0.08349609,1.040039,0.04638672,-0.1191406,-0.2202148
1324,-15.8125,17.4375,-6.0625,-0.2006836,0.03320313,1.008789,0.04882813,-0.1166992,-0.2192383
1326,-14.25,14.1875,-5.4375,-0.2475586,0.04443359,1.055176,0.04882813,-0.1166992,-0.2192383
1327,-11.8125,12.8125,-4.3125,-0.2006836,0.02539063,1.05127,0.04882813,-0.1181641,-0.2192383
1329,-9.4375,11.875,-3.4375,-0.1855469,0.02539063,1.020508,0.05175781,-0.1181641,-0.2202148
1330,-7.5625,10.5625,-2.5625,-0.1894531,0.04052734,1.020508,0.05175781,-0.1181641,-0.2202148
1332,-6.6875,10.625,-1.8125,-0.1464844,0.05615234,1.001465,0.05029297,-0.1181641,-0.2192383
1333,-5.25,11.1875,-1.625,-0.1425781,0.06396484,1.008789,0.05029297,-0.1166992,-0.2216797
1335,-3.4375,10.5,-1.125,-0.2045898,0.04833984,1.055176,0.05029297,-0.1166992,-0.2216797
1336,-2.8125,9.1875,-1,-0.1928711,0.06787109,1.016602,0.05029297,-0.1166992,-0.2192383
1338,-1.375,8.5,-0.625,-0.1855469,0.04443359,1.012695,0.05029297,-0.1152344,-0.2202148
1339,-0.1875,6.8125,-0.4375,-0.1928711,0.06396484,1.036133,0.05029297,-0.1152344,-0.2202148
1341,-0.0625,7.75,-0.25,-0.1347656,0.1030273,1.001465,0.05175781,-0.1166992,-0.2202148
1342,0,8,-0.75,-0.1542969,0.09912109,1.005371,0.05175781,-0.1181641,-0.2192383
1344,0.0625,8.25,-1.1875,-0.1699219,0.09521484,1.012695,0.05175781,-0.1181641,-0.2192383
1345,0.6875,7.8125,-2.4375,-0.2084961,0.06005859,1.032227,0.05175781,-0.1181641,-0.2202148
1347,1.9375,6.5625,-2.875,-0.2084961,-0.005371094,1.020508,0.05175781,-0.1191406,-0.2202148
1348,1,5.8125,-4.0625,-0.1347656,0.1572266,0.9628906,0.05175781,-0.1191406,-0.2202148
1350,-0.4375,7.9375,-5.1875,-0.1074219,0.1611328,1.001465,0.05029297,-0.1166992,-0.2192383
1351,0.1875,10.5,-4.3125,-0.1191406,0.06787109,1.024414,0.05273438,-0.1181641,-0.2192383
1353,2.125,12.625,-2,-0.1503906,0.04443359,1.012695,0.05273438,-0.1181641,-0.2192383
1354,3.25,12.75,0.1875,-0.1855469,0.07568359,1.001465,0.05273438,-0.1166992,-0.2216797
1356,3.375,10.9375,1.1875,-0.2749023,0.06396484,1.012695,0.05175781,-0.1181641,-0.2192383
1357,4.5,9.3125,2.625,-0.1503906,0.04443359,0.9819336,0.05175781,-0.1181641,-0.2192383
1359,5.8125,11.1875,4.375,-0.1542969,0.04833984,1.024414,0.05419922,-0.1152344,-0.2192383
1360,6.125,12.3125,5.6875,-0.1967773,0.07958984,1.024414,0.05273438,-0.1166992,-0.2202148
1362,5.8125,10.1875,6.875,-0.2124023,0.07958984,0.9780273,0.05273438,-0.1166992,-0.2202148
1363,6.5625,9.3125,7.75,-0.1738281,0.05615234,0.9936523,0.05419922,-0.1181641,-0.2177734
1365,7,10.125,9.0625,-0.1699219,0.07177734,1.032227,0.05273438,-0.1181641,-0.2163086
1366,7.75,10.9375,9.75,-0.1855469,0.06005859,1.024414,0.05273438,-0.1181641,-0.2163086
1368,7.375,10.375,11.0625,-0.1777344,0.07568359,0.9780273,0.05419922,-0.1191406,-0.2177734
1369,7.125,9.625,9.1875,-0.1660156,0.1069336,0.9975586,0.05566406,-0.1206055,-0.2202148
1371,5.75,12.3125,9.0625,-0.1386719,0.1337891,1.047363,0.05566406,-0.1206055,-0.2202148
1372,4.9375,14.5,7.875,-0.1621094,0.1181641,1.032227,0.05273438,-0.1191406,-0.2202148
1374,4.625,14.75,7.75,-0.1777344,0.08740234,0.9897461,0.05419922,-0.1191406,-0.2192383
1375,4.8125,14.625,7.3125,-0.1894531,0.1030273,1.008789,0.05419922,-0.1191406,-0.2192383
1377,4.25,14.9375,6.8125,-0.1894531,0.07958984,1.016602,0.05419922,-0.1191406,-0.2177734
1378,3.9375,14.75,6.4375,-0.1699219,0.1181641,1.008789,0.05566406,-0.1206055,-0.2177734
1380,4.375,15.8125,6.8125,-0.1542969,0.07177734,1.016602,0.05566406,-0.1206055,-0.2177734
1382,5.375,17.8125,7.375,-0.1582031,0.07177734,1.024414,0.05419922,-0.1191406,-0.2163086
1384,5.6875,19.3125,6.75,-0.1660156,0.09130859,1.024414,0.05664063,-0.1166992,-0.2163086
1385,6.8125,19.75,6.4375,-0.1855469,0.04443359,1.024414,0.05664063,-0.1166992,-0.2163086
1387,7.75,19.9375,6.9375,-0.1621094,0.06396484,1.012695,0.05566406,-0.1206055,-0.2163086
1388,8.875,21.625,7.625,-0.1308594,0.06005859,1.024414,0.05664063,-0.1191406,-0.2148438
1390,9.6875,26.25,8.625,-0.1269531,0.04052734,1.055176,0.05664063,-0.1191406,-0.2148438
1391,10.1875,30.3125,9.875,-0.1074219,0.06787109,1.012695,0.05810547,-0.1206055,-0.2163086
1393,9.125,34.375,11.3125,-0.01806641,0.1298828,0.9858398,0.05810547,-0.1206055,-0.2163086
1394,8.125,43.125,10.5,0.03222656,0.1181641,1.043945,0.05810547,-0.1206055,-0.2163086
1396,6.125,54.6875,9.25,0.1064453,0.1337891,1.059082,0.05810547,-0.1191406,-0.2163086
1397,3.6875,67.8125,6.1875,0.1176758,0.1533203,1.05127,0.06201172,-0.1220703,-0.2163086
1399,1.3125,78.8125,3.25,0.137207,0.1767578,1.024414,0.06201172,-0.1220703,-0.2163086
1400,0.9375,92,-0.5625,0.1958008,0.1533203,1.059082,0.06201172,-0.1220703,-0.2148438
1402,1.625,115.9375,-5.625,0.2543945,0.1259766,1.229004,0.06591797,-0.1191406,-0.2148438
1403,4.375,139.6875,-8.5625,0.3007813,0.1069336,1.144043,0.06591797,-0.1191406,-0.2148438
1405,10.125,161.5625,-7.75,0.2583008,-0.02099609,1.186523,0.06982422,-0.1191406,-0.2124023
1406,14.375,183.125,-7.75,0.3476563,0.1533203,1.240234,0.07226563,-0.1206055,-0.2124023
1408,26.5625,223.5625,-14.5,0.7563477,-0.02099609,1.575684,0.07226563,-0.1206055,-0.2124023
1409,50.5,288.75,-15.1875,1.177246,-0.3505859,1.699219,0.08007813,-0.1206055,-0.2109375
1411,77.125,366.5625,-25.8125,1.126465,-0.3349609,2.123047,0.08398438,-0.1235352,-0.2094727
1412,106.25,442.875,-29,1.270508,-0.3349609,2.088379,0.08398438,-0.1235352,-0.2094727
1414,141.625,550.375,-23.75,2.286621,-0.5874023,2.909668,0.09570313,-0.1235352,-0.2041016
1415,140.8125,693.375,2.1875,2.551758,-0.2651367,3.449707,0.1074219,-0.1259766,-0.1943359
1417,155.1875,802.8125,18.1875,1.441895,-0.4672852,3.114258,0.1074219,-0.1259766,-0.1943359
1418,198.4375,857.375,33.75,0.8540039,-1.169434,2.612793,0.121582,-0.1298828,-0.1821289
1420,256.9375,888.9375,31.1875,0.5385742,-0.796875,3.202637,0.1396484,-0.1352539,-0.1694336
1421,310.75,886.25,20.25,1.188965,-0.8125,2.948242,0.1396484,-0.1352539,-0.1694336
1423,349.125,826.5,11.5,2.575195,-0.21875,5.805176,0.1538086,-0.1420898,-0.1547852
1424,319.25,759.375,-48.5625,5.506836,0.3085938,6.927246,0.168457,-0.1474609,-0.1337891
1426,225.625,685.25,-121.3125,2.995605,0.8710938,7.817871,0.168457,-0.1474609,-0.1337891
1427,145.375,447.6875,-124.875,-1.376953,0.9487305,7.817871,0.1787109,-0.1499023,-0.1186523
1429,67.3125,116.125,-86.75,-3.102051,1.119629,6.996582,0.1875,-0.1499023,-0.1079102
1430,-18.125,-126,-73.25,-0.637207,1.581543,5.674316,0.1875,-0.1499023,-0.1079102
1432,-86.5,-189.75,-70.0625,2.773438,1.305664,4.0625,0.1875,-0.1484375,-0.1079102
1433,-109.5625,-134.0625,-70.5625,4.623047,0.5605469,2.381348,0.1865234,-0.1474609,-0.1147461
1435,-108.4375,-46.375,-62.5625,4.728516,0.09912109,1.459961,0.1865234,-0.1474609,-0.1147461
1436,-101.0625,27.4375,-59.9375,3.727539,0.08349609,0.9589844,0.1865234,-0.1430664,-0.1147461
1438,-91.8125,54.4375,-59.25,2.508789,0.1030273,0.9858398,0.1875,-0.140625,-0.1147461
1439,-77.9375,43.25,-60.3125,1.644531,0.1220703,1.155762,0.1875,-0.140625,-0.1147461
1441,-63,4.625,-63.3125,1.239258,0.1650391,1.36377,0.1889648,-0.1381836,-0.1162109
1442,-46.5,-39.3125,-65.875,1.301758,0.2270508,1.641113,0.1875,-0.1381836,-0.1176758
1444,-30.5625,-72.875,-65.8125,1.558594,0.2851563,1.791504,0.1875,-0.1381836,-0.1176758
1445,-15.625,-93.875,-62.6875,1.753418,0.3203125,1.841797,0.1889648,-0.1328125,-0.1186523
1447,-3.125,-106.375,-58.375,1.90918,0.3823242,1.822754,0.1875,-0.1298828,-0.1201172
1448,4.0625,-115.875,-52.875,1.87793,0.4755859,1.72998,0.1875,-0.1298828,-0.1201172
1450,5.5,-126.5625,-45.25,1.710449,0.5258789,1.595215,0.1875,-0.1313477,-0.1230469
1451,2.0625,-140,-36.125,1.527344,0.5644531,1.459961,0.1850586,-0.1313477,-0.1259766
1453,-5.25,-155.5,-26,1.348145,0.5722656,1.355957,0.1850586,-0.1313477,-0.1259766
1454,-14.875,-171.125,-15.9375,1.219727,0.5415039,1.251953,0.1835938,-0.1313477,-0.128418
1456,-26.0625,-186.3125,-6.75,1.118652,0.4794922,1.124512,0.1811523,-0.1313477,-0.1313477
1457,-37.8125,-200.875,2.0625,1.060059,0.4091797,0.9975586,0.1811523,-0.1313477,-0.1313477
1459,-48.3125,-211.25,8.6875,1.056152,0.3354492,0.9511719,0.1796875,-0.128418,-0.1367188
1460,-58.5625,-217.3125,13,1.060059,0.246582,0.9165039,0.1748047,-0.1274414,-0.1420898
1462,-66.8125,-221.3125,14.625,1.052246,0.1689453,0.9204102,0.1748047,-0.1274414,-0.1420898
1463,-71.375,-225.25,14.5625,1.021484,0.04443359,0.9433594,0.1694336,-0.1274414,-0.1464844
1465,-71.875,-229.4375,13.0625,0.9863281,-0.04394531,1.016602,0.168457,-0.1259766,-0.1503906
1466,-71.4375,-234.875,10.5,0.9160156,-0.08300781,1.078613,0.168457,-0.1259766,-0.1503906
1468,-71.5,-241.9375,7.375,0.8540039,-0.09082031,1.155762,0.1616211,-0.1274414,-0.1547852
1469,-72.5625,-249.3125,3.6875,0.7915039,-0.1064453,1.205566,0.1606445,-0.1245117,-0.1616211
1471,-74.8125,-256.9375,-0.25,0.7216797,-0.08300781,1.248047,0.1606445,-0.1245117,-0.1616211
1472,-76.9375,-264.8125,-3.375,0.6591797,-0.07128906,1.278809,0.152832,-0.1206055,-0.1640625
1474,-79.4375,-272.3125,-6.3125,0.6044922,-0.04394531,1.282715,0.1474609,-0.1206055,-0.168457
1475,-82,-278.375,-9.75,0.5385742,-0.02099609,1.255859,0.1474609,-0.1206055,-0.168457
1477,-82.3125,-283.8125,-13.5,0.4682617,-0.02490234,1.213379,0.1435547,-0.1206055,-0.1738281
1480,-80.4375,-288.9375,-16.5,0.4140625,-0.02490234,1.182617,0.137207,-0.1191406,-0.1777344
1482,-76,-292.5,-19.125,0.3945313,-0.009277344,1.186523,0.137207,-0.1191406,-0.1777344
1483,-70.875,-295.5,-21.125,0.3710938,0.02539063,1.209473,0.1318359,-0.1166992,-0.1845703
1485,-64.5625,-298.3125,-22.8125,0.3398438,0.06005859,1.282715,0.1293945,-0.1137695,-0.1860352
1486,-56.8125,-301,-23.4375,0.296875,0.09521484,1.386719,0.1293945,-0.1137695,-0.1860352
1488,-49.625,-305.3125,-22.6875,0.2426758,0.1845703,1.494629,0.1230469,-0.1113281,-0.1928711
1489,-42.6875,-310.5625,-19.8125,0.184082,0.2617188,1.614258,0.1162109,-0.1074219,-0.1958008
1491,-36.5625,-318.125,-15.625,0.08691406,0.3432617,1.683594,0.1162109,-0.1074219,-0.1958008
1492,-31.3125,-326.75,-10.4375,-0.01416016,0.4208984,1.707031,0.1123047,-0.105957,-0.199707
1494,-25.6875,-334.5,-4.6875,-0.08007813,0.4677734,1.714355,0.1035156,-0.105957,-0.206543
1495,-18.625,-341.375,2.125,-0.1308594,0.4829102,1.733887,0.1035156,-0.105957,-0.206543
1497,-11.0625,-347.3125,10,-0.1660156,0.4985352,1.75293,0.09326172,-0.1044922,-0.2109375
1498,-4.125,-352.0625,18.875,-0.2202148,0.5297852,1.764648,0.08642578,-0.1044922,-0.2148438
1500,1.375,-356.875,27.625,-0.2788086,0.5532227,1.772461,0.08642578,-0.1044922,-0.2148438
1501,6.0625,-362.375,36.1875,-0.3374023,0.5415039,1.768555,0.07763672,-0.1044922,-0.2163086
1503,10.8125,-367,44.375,-0.3564453,0.4985352,1.780273,0.06835938,-0.1074219,-0.2192383
1504,13.875,-370.5625,51.5,-0.3642578,0.4794922,1.772461,0.06835938,-0.1074219,-0.2192383
1506,15.4375,-372.5625,57.625,-0.3374023,0.4443359,1.791504,0.05810547,-0.105957,-0.2231445
1507,16.25,-373.75,62.875,-0.3100586,0.3901367,1.791504,0.04882813,-0.1074219,-0.2231445
1509,16.125,-373.75,66.625,-0.2866211,0.3354492,1.826172,0.04882813,-0.1074219,-0.2231445
1510,15.125,-373.125,69.0625,-0.2709961,0.28125,1.845703,0.03857422,-0.1074219,-0.2231445
1512,14.625,-372.3125,69.4375,-0.2514648,0.2075195,1.872559,0.02832031,-0.105957,-0.2246094
1513,14.8125,-370.875,68.6875,-0.2436523,0.1689453,1.922852,0.02832031,-0.105957,-0.2246094
1515,14.25,-368.375,67.25,-0.2358398,0.1767578,1.992188,0.01904297,-0.1074219,-0.2231445
1516,13.25,-365.6875,65.625,-0.2553711,0.1879883,2.100098,0.008789063,-0.1088867,-0.2260742
1518,12.4375,-364.4375,63.9375,-0.3061523,0.2270508,2.185059,0.008789063,-0.1088867,-0.2260742
1519,11.5625,-363.625,63.375,-0.3413086,0.2890625,2.254395,0,-0.1088867,-0.2260742
1521,10.5,-362.25,63.25,-0.3837891,0.3745117,2.350586,-0.008789063,-0.1088867,-0.2260742
1522,9.625,-359.5,63.9375,-0.4580078,0.4287109,2.470215,-0.008789063,-0.1088867,-0.2260742
1524,10.625,-357.75,64.9375,-0.621582,0.4365234,2.55127,-0.01806641,-0.1088867,-0.2216797
1525,13.8125,-358.1875,65.75,-0.8046875,0.3862305,2.578125,-0.02685547,-0.1088867,-0.2216797
1527,18.5,-359.8125,66.25,-0.9990234,0.3203125,2.582031,-0.02685547,-0.1088867,-0.2216797
1528,22.625,-360.125,65.875,-1.143066,0.2734375,2.539551,-0.03613281,-0.1088867,-0.2192383
1530,25.125,-358.375,64.75,-1.283203,0.2348633,2.516602,-0.04785156,-0.1098633,-0.2202148
1531,25.25,-353.875,63.4375,-1.369141,0.2270508,2.489746,-0.04785156,-0.1098633,-0.2202148
1533,22.6875,-346.375,61.4375,-1.48584,0.230957,2.466309,-0.05566406,-0.1098633,-0.2177734
1534,17,-337,59.0625,-1.606445,0.2348633,2.45459,-0.06591797,-0.1088867,-0.2133789
1536,9.5,-327.5625,56.75,-1.746582,0.2426758,2.408691,-0.06591797,-0.1088867,-0.2133789
1537,0.75,-316.1875,54.25,-1.875488,0.246582,2.37793,-0.07373047,-0.1088867,-0.2109375
1539,-7.8125,-304.8125,51.1875,-2.003906,0.230957,2.331543,-0.08154297,-0.1088867,-0.2080078
1540,-14.1875,-294.1875,47.0625,-2.147949,0.1845703,2.234863,-0.08154297,-0.1088867,-0.2080078
1542,-18.375,-284.0625,42.5625,-2.276367,0.1572266,2.138672,-0.09033203,-0.1088867,-0.2050781
1543,-21.8125,-273.5625,37.75,-2.373535,0.1918945,2.007813,-0.09814453,-0.1088867,-0.2026367
1545,-25.5625,-261.6875,33,-2.467285,0.2583008,1.86084,-0.09814453,-0.1088867,-0.2026367
1546,-30.25,-248.125,27.5,-2.560547,0.3354492,1.699219,-0.105957,-0.105957,-0.199707
1548,-34.5,-233.4375,21.4375,-2.626953,0.3901367,1.57959,-0.1098633,-0.1044922,-0.1982422
1549,-36.25,-215.5625,14.1875,-2.743652,0.4443359,1.494629,-0.1098633,-0.1044922,-0.1982422
1551,-34.625,-197.75,5.625,-2.887695,0.4248047,1.382813,-0.1162109,-0.1044922,-0.1943359
1552,-25.9375,-181.1875,-3.875,-3.08252,0.3510742,1.329102,-0.1176758,-0.1035156,-0.1904297
1554,-11.625,-167,-15.3125,-3.335449,0.3242188,1.225098,-0.1176758,-0.1035156,-0.1904297
1555,5.1875,-152.375,-23.25,-3.495117,0.215332,1.132324,-0.1230469,-0.1020508,-0.1904297
1557,21.375,-140.9375,-31.9375,-3.705566,0.28125,0.9511719,-0.1240234,-0.1035156,-0.1860352
1558,32.625,-128.0625,-37.25,-3.873047,0.3046875,0.847168,-0.1240234,-0.1035156,-0.1860352
1560,38.9375,-113.4375,-40.1875,-3.966309,0.3242188,0.7392578,-0.1254883,-0.1035156,-0.1889648
1561,39.375,-97.5625,-41.6875,-4.043945,0.3393555,0.6582031,-0.1293945,-0.1074219,-0.1835938
1563,34.5625,-78.6875,-40.8125,-4.063477,0.3242188,0.6196289,-0.1293945,-0.1074219,-0.1835938
1564,25.75,-59.375,-39.375,-4.055664,0.3046875,0.5810547,-0.1318359,-0.1074219,-0.1835938
1566,12.3125,-37.5,-38.375,-4.040039,0.2695313,0.5117188,-0.1308594,-0.105957,-0.1821289
1567,-1.875,-15.4375,-38.375,-4.043945,0.2114258,0.4306641,-0.1308594,-0.105957,-0.1821289
1569,-14.8125,7.5625,-40.25,-3.993652,0.1337891,0.3305664,-0.1333008,-0.1074219,-0.1806641
1570,-23.5625,31.3125,-43.375,-3.92334,0.01367188,0.2958984,-0.1308594,-0.1098633,-0.1821289
1572,-28.625,54.75,-48.9375,-3.841797,-0.09082031,0.2958984,-0.1308594,-0.1098633,-0.1821289
1573,-29.875,77.6875,-55.75,-3.767578,-0.1489258,0.3769531,-0.1308594,-0.1088867,-0.1845703
1575,-30.8125,92.5625,-61.5625,-3.631348,-0.1176758,0.4228516,-0.1279297,-0.1088867,-0.1845703
1577,-43.3125,212.4375,-64.875,-3.810547,0.4677734,0.2612305,-0.1279297,-0.1088867,-0.1845703
1579,-50.625,362.4375,25.5625,-4.250488,1.205078,-2.537598,-0.1230469,-0.1088867,-0.1889648
1580,-148.8125,247.625,35.4375,-3.35498,3.688477,-4.831543,-0.1176758,-0.105957,-0.1928711
1582,-185.625,236.375,31.625,-1.404297,-0.6186523,1.08252,-0.1176758,-0.105957,-0.1928711
1583,-83,193.75,59.125,-0.7734375,-1.588867,-0.2241211,-0.1137695,-0.1035156,-0.1972656
1585,91.3125,179.3125,22.375,2.504883,-2.484863,0.4267578,-0.1098633,-0.1005859,-0.2011719
1586,192.1875,364.4375,11.125,7.010254,-1.708984,2.897949,-0.1098633,-0.1005859,-0.2011719
1588,139.5625,682.6875,-2.1875,6.908691,1.356445,5.29248,-0.1049805,-0.1044922,-0.199707
1589,65.1875,759.5,3.25,-0.05273438,1.228027,3.796387,-0.08789063,-0.1088867,-0.206543
1591,49.5625,616.875,12.9375,-4.830566,-0.2924805,3.734863,-0.08789063,-0.1088867,-0.206543
1592,56.5,399.4375,14.4375,-5.991211,-0.8046875,3.372559,-0.07128906,-0.1113281,-0.2133789
1594,44.625,246.6875,12.0625,-3.970215,-0.4555664,3.611328,-0.06347656,-0.1098633,-0.2148438
1595,25,187.875,9.9375,-1.400391,-0.6337891,3.013672,-0.06347656,-0.1098633,-0.2148438
1597,23.4375,188.625,-2.5,0.5073242,-1.095703,2.624512,-0.06054688,-0.1113281,-0.2192383
1598,40.0625,220.1875,-18.9375,1.219727,-1.072754,2.077148,-0.05175781,-0.1152344,-0.2177734
1600,54.75,249.5,-30.8125,1.14209,-0.7426758,1.587402,-0.05175781,-0.1152344,-0.2177734
1601,59.4375,271.4375,-34.5625,0.6630859,-0.1606445,1.170898,-0.04638672,-0.1152344,-0.2216797
1603,59.4375,278.25,-33.375,0.03613281,0.246582,0.9243164,-0.04003906,-0.1181641,-0.2177734
1604,61.0625,267.6875,-28.25,-0.4345703,0.5336914,0.8393555,-0.04003906,-0.1181641,-0.2177734
1606,57.5625,254.6875,-20.8125,-0.543457,0.7705078,1.062988,-0.03222656,-0.1181641,-0.2192383
1607,52.8125,220.3125,23.375,-0.2827148,0.378418,1.144043,-0.02685547,-0.1206055,-0.2192383
1609,95.625,193.125,122.125,3.23291,1.876465,4.875977,-0.02685547,-0.1206055,-0.2192383
1610,-9.5625,427.4375,-8.875,4.011719,2.435059,7.181641,-0.02197266,-0.1206055,-0.2192383
1612,-35.625,425.125,-50.375,-3.05127,-0.7387695,1.541016,-0.01123047,-0.1191406,-0.2202148
1613,7.25,198.5625,4.25,-4.394531,-0.3974609,-0.05859375,-0.01123047,-0.1191406,-0.2202148
1615,1.4375,85.625,-0.3125,-0.9912109,0.4985352,1.826172,-0.006347656,-0.1206055,-0.2216797
1616,-13.1875,171.125,-11.375,0.7993164,0.4521484,3.688477,-0.002441406,-0.1206055,-0.2202148
1618,-20.8125,180.5,-14.3125,0.01660156,0.07958984,0.8085938,-0.002441406,-0.1206055,-0.2202148
1619,-6.9375,163.6875,-13.875,0.02050781,-0.269043,0.3535156,0,-0.1206055,-0.2216797
1621,-1.4375,178.1875,-15.9375,0.534668,0.01367188,0.8432617,0.007324219,-0.1206055,-0.2216797
1622,-12.6875,207.6875,-23.3125,0.440918,0.4287109,1.633789,0.007324219,-0.1206055,-0.2216797
1624,-25.5,205.8125,-28.1875,-0.3955078,0.4716797,1.128418,0.01123047,-0.1220703,-0.2231445
1625,-32.6875,171.3125,-30.8125,-0.9174805,0.3979492,1.040039,0.01660156,-0.1206055,-0.2231445
1627,-40.6875,139.875,-31.3125,-0.796875,0.3666992,1.128418,0.01660156,-0.1206055,-0.2231445
1628,-46.0625,125.5625,-31.75,-0.4501953,0.2734375,1.286621,0.01806641,-0.1191406,-0.2231445
1630,-47.0625,128.5,-32.5625,-0.2241211,0.06396484,1.379395,0.02050781,-0.1191406,-0.2246094
1631,-42.25,130.3125,-31.125,-0.2358398,-0.05566406,1.248047,0.02050781,-0.1191406,-0.2246094
1633,-41.8125,125.5,-28.75,-0.2983398,-0.02099609,1.144043,0.02587891,-0.1152344,-0.2260742
1634,-37.875,117.375,-26.3125,-0.3642578,-0.001464844,1.174805,0.02929688,-0.1152344,-0.2260742
1636,-38.75,108.375,-24.8125,-0.4462891,0.1220703,1.205566,0.02929688,-0.1152344,-0.2260742
1637,-36.8125,94.6875,-24,-0.5161133,0.09130859,1.274902,0.03076172,-0.1137695,-0.2246094
1639,-33.25,79.6875,-21.5625,-0.5473633,-0.03662109,1.30957,0.03466797,-0.1113281,-0.2246094
1640,-28.5625,67.625,-17.6875,-0.4892578,-0.06738281,1.229004,0.03466797,-0.1113281,-0.2246094
1642,-24.0625,57.5,-14.1875,-0.4150391,-0.07519531,1.209473,0.03613281,-0.112793,-0.2270508
1643,-19.4375,49.8125,-11.125,-0.3759766,-0.07128906,1.178711,0.03710938,-0.1113281,-0.2231445
1645,-15.1875,41.625,-8.625,-0.3525391,-0.07128906,1.155762,0.03710938,-0.1113281,-0.2231445
1646,-10.8125,34.5625,-6.375,-0.3217773,-0.05175781,1.166992,0.04003906,-0.1113281,-0.2231445
1648,-6.875,28.8125,-4.4375,-0.2866211,-0.04785156,1.15918,0.04101563,-0.1113281,-0.2246094
1649,-3.0625,24.375,-2.625,-0.2553711,-0.04785156,1.128418,0.04101563,-0.1113281,-0.2246094
1651,0,20.1875,-1,-0.2475586,-0.03271484,1.120605,0.04003906,-0.1113281,-0.2231445
1652,3.9375,16.25,0.4375,-0.2553711,-0.04003906,1.113281,0.04101563,-0.1113281,-0.2260742
1654,7.0625,11.3125,2,-0.2631836,-0.03271484,1.101563,0.04101563,-0.1113281,-0.2260742
1655,9.625,6.4375,3.0625,-0.2592773,-0.001464844,1.097656,0.04101563,-0.1113281,-0.2260742
1657,11.75,2.5,4.0625,-0.2280273,0.001953125,1.089844,0.04003906,-0.1098633,-0.2231445
1658,13.875,-0.0625,4.625,-0.1894531,0.009765625,1.05127,0.04003906,-0.1098633,-0.2231445
1660,15.75,-1.4375,5.25,-0.1582031,0.009765625,1.032227,0.04003906,-0.112793,-0.2231445
1661,17.4375,-2.3125,5.875,-0.1621094,0.01367188,1.036133,0.04101563,-0.1113281,-0.2231445
1663,18.75,-3.75,6,-0.1621094,0.03320313,1.02832,0.04101563,-0.1113281,-0.2231445
1664,19.4375,-4.75,6.5625,-0.1503906,0.05224609,1.024414,0.04248047,-0.1137695,-0.2260742
1666,19.3125,-5.5625,6.75,-0.1347656,0.07568359,1.024414,0.04003906,-0.1137695,-0.2216797
1667,18.5,-5.6875,6.5,-0.1269531,0.09912109,1.016602,0.04003906,-0.1137695,-0.2216797
1669,16.375,-5.4375,5.625,-0.1113281,0.1298828,0.9975586,0.04101563,-0.112793,-0.2246094
1670,13.5625,-5.125,4.75,-0.08789063,0.1337891,0.9589844,0.04003906,-0.1137695,-0.2231445
1672,10.625,-2.6875,3.3125,-0.05273438,0.1728516,0.9628906,0.04003906,-0.1137695,-0.2231445
1675,6.625,0,1.5625,-0.04882813,0.199707,0.9589844,0.04101563,-0.1137695,-0.2231445
1677,3.3125,1.8125,-0.3125,-0.06835938,0.1728516,0.9707031,0.04003906,-0.1166992,-0.2246094
1678,0.75,3.375,-1.5,-0.07617188,0.1416016,0.9780273,0.04003906,-0.1166992,-0.2246094
1680,-1.375,4.4375,-2.3125,-0.07617188,0.1337891,0.9780273,0.04101563,-0.1152344,-0.2216797
1681,-3.625,6,-3.1875,-0.08789063,0.1298828,0.9741211,0.04101563,-0.1152344,-0.2231445
1683,-5.5625,7.125,-3.75,-0.08007813,0.1337891,0.9628906,0.04101563,-0.1152344,-0.2231445
1684,-7.6875,8.25,-4.5625,-0.08398438,0.1220703,0.9707031,0.04101563,-0.1152344,-0.2216797
1686,-8.75,9.625,-5,-0.08398438,0.1030273,0.9589844,0.04101563,-0.1152344,-0.2231445
1687,-9.5,11,-5.5,-0.07617188,0.08740234,0.9667969,0.04101563,-0.1152344,-0.2231445
1689,-10.1875,12.5,-5.6875,-0.07617188,0.07568359,0.9707031,0.04248047,-0.1152344,-0.2260742
1690,-10.25,14.75,-6.125,-0.06835938,0.06787109,0.9511719,0.04394531,-0.1137695,-0.2231445
1692,-10.3125,16.75,-6.25,-0.06054688,0.06005859,0.9511719,0.04394531,-0.1137695,-0.2231445
1693,-10.625,18.875,-6.5,-0.06835938,0.05615234,0.9511719,0.04248047,-0.112793,-0.2260742
1695,-11.0625,21.0625,-6.625,-0.06054688,0.05615234,0.9394531,0.04394531,-0.112793,-0.2231445
1696,-11.125,23.8125,-6.9375,-0.04101563,0.05224609,0.9394531,0.04394531,-0.112793,-0.2231445
1698,-11.625,27.125,-7.25,-0.05273438,0.06005859,0.9394531,0.04248047,-0.1137695,-0.2231445
1699,-11.8125,29.5625,-7.4375,-0.07226563,0.05615234,0.9511719,0.04394531,-0.1137695,-0.2231445
1701,-11.8125,31.5625,-7.625,-0.07617188,0.03662109,0.9394531,0.04394531,-0.1137695,-0.2231445
1702,-11.5625,33.375,-7.8125,-0.08789063,0.04052734,0.9511719,0.04638672,-0.1113281,-0.2246094
1704,-11.125,35.125,-7.8125,-0.09960938,0.04443359,0.9741211,0.04492188,-0.1098633,-0.2231445
1705,-10.9375,35.8125,-7.6875,-0.1308594,0.04833984,0.9858398,0.04492188,-0.1098633,-0.2231445
1707,-10.9375,34.4375,-7.375,-0.1699219,0.04443359,0.9936523,0.04638672,-0.1088867,-0.2216797
1708,-11.4375,32.625,-7.3125,-0.2124023,0.04833984,1.032227,0.04785156,-0.1098633,-0.2231445
1710,-11,30.5625,-6.9375,-0.1967773,0.04443359,1.005371,0.04785156,-0.1098633,-0.2231445
1711,-10.75,30.0625,-7,-0.1503906,0.04443359,0.9741211,0.05029297,-0.1098633,-0.2246094
1713,-10.1875,30.25,-6.875,-0.1464844,0.04052734,0.9975586,0.05175781,-0.1113281,-0.2246094
1714,-10.375,29.9375,-7.0625,-0.1503906,0.05615234,1.001465,0.05175781,-0.1113281,-0.2246094
1716,-11.125,30.0625,-7.625,-0.1503906,0.06787109,0.9819336,0.05273438,-0.112793,-0.2260742
1717,-10.9375,30.0625,-7.625,-0.1738281,0.06005859,1.020508,0.05273438,-0.1152344,-0.2260742
1719,-11.875,28.8125,-7.625,-0.2006836,0.06005859,1.024414,0.05273438,-0.1152344,-0.2260742
1720,-11.5625,26.625,-7.4375,-0.2202148,0.04443359,1.024414,0.05175781,-0.112793,-0.2216797
1722,-10.125,25.1875,-7.125,-0.2045898,0.02148438,1.012695,0.05273438,-0.112793,-0.2246094
1723,-9.4375,23.9375,-6.625,-0.2006836,0.01757813,1.008789,0.05273438,-0.112793,-0.2246094
1725,-8.0625,22.6875,-6.1875,-0.2084961,0.001953125,1.024414,0.05175781,-0.1113281,-0.2216797
1726,-6.6875,20.25,-5.3125,-0.2358398,0.02539063,1.036133,0.05566406,-0.1113281,-0.2231445
1728,-4.8125,17.625,-4.625,-0.2475586,0.005859375,1.043945,0.05566406,-0.1113281,-0.2231445
1729,-2.9375,14.875,-3.625,-0.2397461,0.02539063,1.024414,0.05175781,-0.1088867,-0.2231445
1731,-1.5625,12.0625,-2.875,-0.2475586,0.001953125,1.040039,0.05566406,-0.1088867,-0.2246094
1732,-0.625,10.25,-1.75,-0.2241211,0.02148438,1.020508,0.05566406,-0.1088867,-0.2246094
1734,1.3125,7.5,-0.875,-0.2475586,-0.009277344,1.040039,0.05419922,-0.1088867,-0.2246094
1735,3.25,5.375,0,-0.2202148,0.001953125,1.032227,0.05419922,-0.1088867,-0.2231445
1737,3.125,5,-0.0625,-0.1894531,0.04052734,0.9897461,0.05419922,-0.1088867,-0.2231445
1738,3.8125,4.125,-0.4375,-0.2006836,0.02929688,1.024414,0.05566406,-0.1088867,-0.2216797
1740,4.5625,4.5625,-0.8125,-0.1582031,0.01367188,1.005371,0.05664063,-0.1074219,-0.2246094
1741,3.6875,5.75,-1.5,-0.1542969,0.1259766,0.9858398,0.05664063,-0.1074219,-0.2246094
1743,1.0625,5.625,-3.4375,-0.1855469,0.1572266,0.9975586,0.05566406,-0.1088867,-0.2231445
1744,0.75,5.125,-4.1875,-0.1816406,0.03662109,1.005371,0.05566406,-0.1088867,-0.2246094
1746,0.6875,6,-4.5,-0.1582031,0.06787109,0.9975586,0.05566406,-0.1088867,-0.2246094
1747,-0.0625,6.4375,-5,-0.1738281,0.09521484,0.9975586,0.05664063,-0.1088867,-0.2202148
1749,-0.0625,7.125,-5.1875,-0.1582031,0.05224609,1.008789,0.05664063,-0.1098633,-0.2246094
1750,0.8125,8.1875,-4.5,-0.1582031,0.03320313,1.012695,0.05664063,-0.1098633,-0.2246094
1752,1.3125,9.3125,-3.5625,-0.1738281,0.04833984,1.008789,0.05566406,-0.1113281,-0.2231445
1753,1.9375,9.4375,-2.5625,-0.1894531,0.04052734,1.008789,0.05664063,-0.1098633,-0.2216797
1755,1.8125,9.125,-3.25,-0.2358398,0.06787109,1.001465,0.05664063,-0.1098633,-0.2216797
1756,2.25,7.8125,-2.9375,-0.1660156,0.01757813,0.9667969,0.05566406,-0.1098633,-0.2216797
1758,3.875,9.8125,-1.4375,-0.1621094,0.01367188,1.032227,0.05664063,-0.1074219,-0.2231445
1759,4.625,12,-0.125,-0.1855469,0.02929688,1.032227,0.05664063,-0.1074219,-0.2231445
1761,4.75,10.625,0.8125,-0.2280273,0.05615234,0.9819336,0.05810547,-0.1098633,-0.2231445
1762,5.25,8.25,2.3125,-0.2319336,0.05224609,0.9707031,0.05664063,-0.1088867,-0.2202148
1764,5.375,7.75,3.5,-0.2163086,0.04052734,1.005371,0.05664063,-0.1088867,-0.2202148
1765,5.75,8.5,4.75,-0.2084961,0.05224609,1.012695,0.05810547,-0.1088867,-0.2202148
1767,5.125,7.875,5.8125,-0.2202148,0.07177734,0.9780273,0.05810547,-0.1088867,-0.2202148
1768,5.0625,6.625,7.375,-0.2319336,0.06005859,0.9819336,0.05810547,-0.1088867,-0.2202148
1770,5.0625,4.9375,8.8125,-0.2241211,0.06787109,0.9819336,0.05664063,-0.1113281,-0.2202148
1772,4.1875,4.625,9.3125,-0.1894531,0.06787109,0.9858398,0.05810547,-0.112793,-0.2231445
1774,3.8125,5.625,9,-0.1503906,0.06396484,1.008789,0.05810547,-0.112793,-0.2231445
1775,3.4375,7.9375,9,-0.1738281,0.06787109,1.02832,0.05810547,-0.1098633,-0.2202148
1777,2.6875,7.875,8.5625,-0.1816406,0.08740234,0.9780273,0.05664063,-0.1098633,-0.2216797
1778,2.8125,7.9375,8.0625,-0.1777344,0.06396484,0.9936523,0.05664063,-0.1098633,-0.2216797
1780,2.0625,9.0625,7.3125,-0.1738281,0.1069336,1.016602,0.06054688,-0.1088867,-0.2231445
1781,1.4375,10.9375,6.5625,-0.1542969,0.07958984,1.001465,0.06054688,-0.112793,-0.2202148
1783,1.375,12.0625,5.625,-0.1855469,0.06005859,1.012695,0.06054688,-0.112793,-0.2202148
1784,0.9375,11.8125,5.0625,-0.2124023,0.07568359,0.9975586,0.05957031,-0.1113281,-0.2202148
1786,1.625,10.625,5.3125,-0.2124023,0.04833984,0.9897461,0.06054688,-0.1098633,-0.2202148
1787,1.375,10.625,5.3125,-0.2045898,0.06787109,1.008789,0.06054688,-0.1098633,-0.2202148
1789,1.375,11.6875,5.5,-0.2124023,0.07958984,1.024414,0.05957031,-0.1098633,-0.2192383
1790,1,11.9375,5.75,-0.2202148,0.08349609,1.016602,0.06054688,-0.1088867,-0.2202148
1792,0.75,11.25,8.125,-0.1967773,0.07177734,0.9897461,0.06054688,-0.1088867,-0.2202148
1793,0.0625,12.25,8.75,-0.1777344,0.09521484,1.016602,0.06201172,-0.1098633,-0.2192383
1795,-1.25,14.25,8.75,-0.1347656,0.1376953,1.020508,0.06201172,-0.1113281,-0.2216797
1796,-1.9375,18.8125,6.6875,-0.1074219,0.1030273,1.05127,0.06201172,-0.1113281,-0.2216797
1798,-2.1875,22.4375,6.125,-0.1347656,0.06005859,1.047363,0.06201172,-0.112793,-0.2216797
1799,-1.5625,24.6875,6.5625,-0.09960938,0.01757813,0.9975586,0.06347656,-0.1113281,-0.2202148
1801,0.4375,30.625,5.6875,-0.04101563,-0.02880859,1.05127,0.06347656,-0.1113281,-0.2202148
1802,2.0625,39.8125,6.8125,0.04394531,0.009765625,1.047363,0.06347656,-0.1113281,-0.2192383
1804,3,51.1875,5.8125,0.121582,0.07177734,1.097656,0.06591797,-0.1113281,-0.2192383
1805,3.5625,68.9375,4.75,0.1450195,0.07568359,1.163086,0.06591797,-0.1113281,-0.2192383
1807,2.5,83,2.25,0.2348633,0.1689453,1.059082,0.06445313,-0.1098633,-0.2216797
1808,5.3125,104.5,-0.125,0.3945313,0.07958984,1.13623,0.06689453,-0.1113281,-0.2192383
1810,12.5625,138.125,-2,0.565918,-0.05957031,1.329102,0.06689453,-0.1113281,-0.2192383
1811,21.8125,177.5625,-1.9375,0.6318359,-0.001464844,1.371582,0.06982422,-0.1098633,-0.2163086
1813,31.875,215.375,-1.375,0.3710938,-0.1025391,1.402344,0.07617188,-0.1113281,-0.2163086
1814,44.375,242.5625,-3.125,0.425293,-0.07128906,1.213379,0.07617188,-0.1113281,-0.2163086
1816,55.8125,306.625,-2.125,1.379395,-0.284668,2.030762,0.08154297,-0.112793,-0.2163086
1817,68.25,413.8125,5.8125,1.348145,-0.2304688,2.315918,0.09033203,-0.1137695,-0.2124023
1819,72.6875,485.125,11.1875,2.306152,-0.08300781,2.790039,0.09033203,-0.1137695,-0.2124023
1820,77.9375,651.125,9.0625,2.757813,-0.03271484,3.99707,0.09960938,-0.1152344,-0.2041016
1822,94.375,756.625,21.5,2.049316,-0.5175781,2.508789,0.1137695,-0.1166992,-0.1982422
1823,119.5,825.375,31.9375,0.3554688,-0.8823242,2.516602,0.1137695,-0.1166992,-0.1982422
1825,162.1875,850.3125,37.4375,0.4956055,-0.8588867,2.111816,0.1318359,-0.1206055,-0.1860352
1826,208.125,889.0625,31.375,0.6240234,-0.6298828,3.183594,0.1474609,-0.1274414,-0.1708984
1828,237.375,865.5625,20.8125,1.726074,-0.5253906,3.719238,0.1474609,-0.1274414,-0.1708984
1829,260.5,792.4375,-18.4375,2.485352,-0.2148438,6.229492,0.1630859,-0.128418,-0.1557617
1831,229.3125,662.25,-126.3125,4.918945,-0.1567383,7.763672,0.1748047,-0.1328125,-0.1396484
1832,193.6875,595.5625,-156.3125,1.648438,-0.7851563,7.817871,0.1748047,-0.1328125,-0.1396484
1834,164.5,292.5,-130.5625,-1.9375,0.4985352,6.557129,0.1875,-0.1367188,-0.1259766
1835,82.375,34.125,-101.3125,-0.8823242,1.398926,6.206055,0.1928711,-0.1352539,-0.1162109
1837,-30.25,-110.1875,-101.0625,1.889648,1.604492,4.48291,0.1928711,-0.1352539,-0.1162109
1838,-97.5625,-117.0625,-100.75,3.883301,0.7744141,2.855957,0.1943359,-0.1313477,-0.1162109
1840,-117.125,-57.8125,-90.0625,4.280273,0.2192383,1.884277,0.1914063,-0.1298828,-0.1201172
1841,-122.25,11.5,-79.375,3.988281,0.1572266,1.151855,0.1914063,-0.1298828,-0.1201172
1843,-126.3125,55.875,-73.625,3.104492,0.1958008,0.8935547,0.1943359,-0.1259766,-0.1230469
1844,-123.5,65.4375,-71.25,2.150391,0.1337891,0.9008789,0.1953125,-0.1235352,-0.121582
1846,-113.875,47.8125,-71.5625,1.53125,0.1030273,1.059082,0.1953125,-0.1235352,-0.121582
1847,-98.5625,10.25,-75.25,1.254883,0.07177734,1.232422,0.1953125,-0.1191406,-0.1230469
1849,-79.1875,-26.625,-80.6875,1.313477,0.05615234,1.463867,0.1967773,-0.1181641,-0.1259766
1850,-56.5,-55.5625,-86.0625,1.519531,0.05224609,1.62207,0.1967773,-0.1181641,-0.1259766
1852,-32.1875,-75.625,-90.25,1.714355,0.09130859,1.695313,0.1967773,-0.1137695,-0.1269531
1853,-13.4375,-88.6875,-89.6875,1.800293,0.2231445,1.707031,0.1967773,-0.112793,-0.1298828
1855,-2.625,-100.25,-90.125,1.749512,0.378418,1.695313,0.1967773,-0.112793,-0.1298828
1856,-0.8125,-113.1875,-82.75,1.640625,0.5063477,1.652832,0.1953125,-0.1113281,-0.1313477
1858,-7,-127.875,-73.4375,1.511719,0.6342773,1.567871,0.1953125,-0.1074219,-0.1328125
1859,-18.25,-141.8125,-62.3125,1.387207,0.7041016,1.452637,0.1953125,-0.1074219,-0.1328125
1861,-31,-155.25,-50.4375,1.290039,0.7006836,1.344238,0.1928711,-0.105957,-0.1352539
1862,-43.125,-168.125,-39.125,1.200195,0.6303711,1.240234,0.1914063,-0.1074219,-0.1381836
1864,-51.5625,-179,-29.5,1.161621,0.5415039,1.178711,0.1914063,-0.1074219,-0.1381836
1865,-56.5,-188.125,-22.125,1.134277,0.4208984,1.140137,0.1865234,-0.1035156,-0.1420898
1867,-57.5,-196,-17.25,1.106934,0.3085938,1.140137,0.1835938,-0.1020508,-0.1464844
1870,-53.625,-202.5,-15.0625,1.071777,0.1879883,1.182617,0.1835938,-0.1020508,-0.1464844
1872,-45.875,-209.75,-15,1.025391,0.08349609,1.240234,0.1811523,-0.1035156,-0.1518555
1873,-33.6875,-217.75,-16.5625,0.9472656,-0.001464844,1.336914,0.1787109,-0.1005859,-0.1572266
1875,-19,-227.3125,-18.8125,0.9042969,-0.03662109,1.398438,0.1787109,-0.1005859,-0.1572266
1876,-3.9375,-238,-20,0.8227539,-0.03271484,1.502441,0.1757813,-0.09814453,-0.1601563
1878,8.8125,-249.125,-20.375,0.7485352,0.001953125,1.57959,0.1708984,-0.1005859,-0.1640625
1879,18.0625,-261.25,-19.1875,0.6396484,0.06005859,1.618164,0.1708984,-0.1005859,-0.1640625
1881,24.375,-273.3125,-16.5625,0.5385742,0.1181641,1.610352,0.1669922,-0.09814453,-0.1694336
1882,26.625,-285.0625,-11.75,0.440918,0.1806641,1.587402,0.1606445,-0.09814453,-0.1738281
1884,24.9375,-295.3125,-5.9375,0.34375,0.2387695,1.548828,0.1606445,-0.09814453,-0.1738281
1885,19.875,-305.6875,0.625,0.2231445,0.265625,1.483398,0.1552734,-0.09814453,-0.175293
1887,13.5625,-315.375,6.5625,0.1450195,0.2504883,1.410156,0.1489258,-0.09912109,-0.1791992
1888,8.125,-323.125,12.3125,0.1176758,0.2036133,1.402344,0.1489258,-0.09912109,-0.1791992
1890,3.625,-328.9375,17.625,0.1103516,0.1494141,1.41748,0.1435547,-0.1020508,-0.1860352
1891,0,-332.5,21.5,0.1176758,0.1142578,1.452637,0.1381836,-0.09814453,-0.1904297
1893,-1.75,-335.9375,24.3125,0.1142578,0.04833984,1.521973,0.1381836,-0.09814453,-0.1904297
1894,-1.8125,-338.8125,26.3125,0.08300781,-0.01708984,1.583496,0.1308594,-0.09912109,-0.1928711
1896,-0.4375,-342.8125,27.625,0.03222656,-0.07128906,1.648926,0.1240234,-0.09912109,-0.1982422
1897,2.625,-347.5625,27.875,-0.04101563,-0.1137695,1.691406,0.1240234,-0.09912109,-0.1982422
1899,5.5,-353.375,27.8125,-0.1113281,-0.1450195,1.695313,0.1137695,-0.09814453,-0.206543
1900,9.1875,-359.0625,27.125,-0.1738281,-0.1645508,1.683594,0.105957,-0.09667969,-0.2080078
1902,12.5,-363.125,26.375,-0.2280273,-0.1762695,1.652832,0.105957,-0.09667969,-0.2080078
1903,15.5625,-366.375,26.0625,-0.2709961,-0.1645508,1.648926,0.09814453,-0.09814453,-0.2148438
1905,17.5,-368.875,25.875,-0.3139648,-0.1450195,1.672363,0.08789063,-0.1005859,-0.2148438
1906,17.9375,-371.125,26.6875,-0.3525391,-0.1137695,1.718262,0.08789063,-0.1005859,-0.2148438
1908,17.1875,-372.75,27.625,-0.3681641,-0.07519531,1.772461,0.08007813,-0.09912109,-0.2192383
1909,15,-374.6875,29.0625,-0.3720703,-0.05175781,1.826172,0.07080078,-0.1020508,-0.2231445
1911,12.3125,-376.8125,31.0625,-0.3837891,-0.02099609,1.895996,0.07080078,-0.1020508,-0.2231445
1912,9,-379.25,32.875,-0.3681641,0.001953125,1.972656,0.06201172,-0.1005859,-0.2246094
1914,5.1875,-381.75,35.0625,-0.3759766,0.02539063,2.057617,0.05175781,-0.1035156,-0.2260742
1915,1.25,-385.375,36.875,-0.3837891,0.03662109,2.115723,0.05175781,-0.1035156,-0.2260742
1917,-2.3125,-389.6875,38.9375,-0.3720703,0.03662109,2.165527,0.04101563,-0.1035156,-0.2285156
1918,-4.5,-394.1875,39.875,-0.3486328,0.02929688,2.181152,0.03076172,-0.1005859,-0.2299805
1920,-5.9375,-397.0625,40.25,-0.3295898,0.01757813,2.211914,0.03076172,-0.1005859,-0.2299805
1921,-5.875,-398.5625,39.625,-0.2749023,0.02929688,2.231445,0.02294922,-0.1005859,-0.2299805
1923,-4.5625,-397.0625,39.125,-0.2358398,0.06005859,2.319824,0.01269531,-0.1035156,-0.2299805
1924,-2.8125,-394.4375,38.9375,-0.2280273,0.1220703,2.38916,0.01269531,-0.1035156,-0.2299805
1926,-1.4375,-392.4375,39.625,-0.2709961,0.1879883,2.431641,0,-0.1035156,-0.2299805
1927,-0.5625,-390.875,41.0625,-0.3452148,0.296875,2.516602,-0.008789063,-0.1020508,-0.2270508
1929,-0.5,-390.125,43.4375,-0.4267578,0.3823242,2.585938,-0.008789063,-0.1020508,-0.2270508
1930,0.1875,-388.9375,46.75,-0.5317383,0.4404297,2.639648,-0.01904297,-0.1020508,-0.2270508
1932,2.5,-388.6875,50.0625,-0.65625,0.4638672,2.666992,-0.03076172,-0.1020508,-0.2270508
1933,5.9375,-388.125,52.625,-0.78125,0.4443359,2.693848,-0.03076172,-0.1020508,-0.2270508
1935,11.125,-386.8125,54.3125,-0.909668,0.4169922,2.686035,-0.04248047,-0.1005859,-0.2260742
1936,16.6875,-384.625,54.875,-1.026367,0.4057617,2.670898,-0.05029297,-0.1020508,-0.2246094
1938,22.0625,-381.0625,54.8125,-1.158691,0.4057617,2.624512,-0.05029297,-0.1020508,-0.2246094
1939,26,-376.125,54.8125,-1.268066,0.4404297,2.574219,-0.06054688,-0.1005859,-0.2216797
1941,27.9375,-368.75,55.0625,-1.384766,0.4907227,2.520508,-0.07128906,-0.1005859,-0.2163086
1942,27.1875,-359.8125,55.875,-1.470215,0.5336914,2.48584,-0.07128906,-0.1005859,-0.2163086
1944,23.6875,-348.875,56.625,-1.586914,0.5957031,2.419922,-0.08007813,-0.1005859,-0.2133789
1945,18.875,-336.625,58.125,-1.727539,0.6342773,2.34668,-0.08642578,-0.1035156,-0.206543
1947,13.25,-323.5625,58.625,-1.86377,0.6616211,2.242676,-0.08642578,-0.1035156,-0.206543
1948,9.3125,-310.6875,58.625,-2.023438,0.6538086,2.150391,-0.09716797,-0.1020508,-0.2050781
1950,8.25,-298.25,57.5625,-2.175293,0.6152344,2.045898,-0.1049805,-0.1035156,-0.199707
1951,10.75,-286.625,55.5,-2.319336,0.5415039,1.965332,-0.1049805,-0.1035156,-0.199707
1953,16.9375,-274.0625,51.1875,-2.455566,0.4365234,1.880371,-0.1113281,-0.1005859,-0.1982422
1954,24.875,-262.125,44,-2.583984,0.3588867,1.826172,-0.1176758,-0.09912109,-0.1943359
1956,34.5625,-250.875,33.5625,-2.782715,0.2114258,1.772461,-0.1176758,-0.09912109,-0.1943359
1957,45.6875,-241.125,20.8125,-2.977051,0.09130859,1.652832,-0.1254883,-0.1005859,-0.1928711
1959,59.25,-228.8125,7.6875,-3.070801,0.01757813,1.62207,-0.1308594,-0.1020508,-0.1889648
1960,67.4375,-212.8125,-7.0625,-3.191406,0.02148438,1.51416,-0.1308594,-0.1020508,-0.1889648
1962,75.125,-198.0625,-20.375,-3.432617,0.001953125,1.348145,-0.1333008,-0.1035156,-0.1835938
1963,79,-180.625,-31.1875,-3.646973,0.02148438,1.194336,-0.1386719,-0.1035156,-0.1806641
1965,77.625,-163.6875,-39.25,-3.869141,0.07958984,1.020508,-0.1386719,-0.1035156,-0.1806641
1967,71.5,-144.8125,-44.5625,-4.040039,0.1142578,0.8510742,-0.1411133,-0.1074219,-0.175293
1969,61.8125,-121.1875,-47.375,-4.168945,0.1259766,0.6928711,-0.1435547,-0.1098633,-0.1723633
1970,48.6875,-96.75,-47.8125,-4.30127,0.1806641,0.5078125,-0.1435547,-0.1098633,-0.1723633
1972,33,-69.6875,-45.5625,-4.371094,0.2231445,0.3266602,-0.1464844,-0.1113281,-0.1708984
1973,16.125,-40.6875,-41.8125,-4.449219,0.2192383,0.1723633,-0.1489258,-0.1113281,-0.168457
1975,-0.3125,-12.25,-38.25,-4.425781,0.230957,0.03759766,-0.1489258,-0.1113281,-0.168457
1976,-13.5625,16.125,-35.1875,-4.340332,0.1650391,0.05664063,-0.1474609,-0.112793,-0.1669922
1978,-23.875,44.3125,-33,-4.234863,0.1376953,0.1108398,-0.1474609,-0.112793,-0.1694336
1979,-32.5625,70.8125,-32.5,-4.098633,0.1259766,0.2651367,-0.1474609,-0.112793,-0.1694336
1981,-39.3125,93.8125,-32.125,-3.919434,0.1416016,0.4731445,-0.1425781,-0.112793,-0.1708984
1982,-45.1875,115.1875,-32.25,-3.740234,0.1845703,0.6928711,-0.1425781,-0.1137695,-0.175293
1984,-50.6875,131.1875,-32.0625,-3.561523,0.2348633,0.9008789,-0.1425781,-0.1137695,-0.175293
1985,-55.1875,145.8125,-30.25,-3.331543,0.2734375,1.147949,-0.1386719,-0.112793,-0.1762695
1987,-59.25,157.375,-27.5,-3.132813,0.3320313,1.355957,-0.1347656,-0.1113281,-0.1777344
1988,-57.4375,125.5,-12.875,-2.76709,0.4946289,1.20166,-0.1347656,-0.1113281,-0.1777344
1990,-152.75,132.75,27.8125,-2.669434,2.237305,0.1801758,-0.1318359,-0.1113281,-0.1806641
1991,-200.9375,7.5625,104,-0.3295898,1.177734,-0.1816406,-0.1308594,-0.1074219,-0.1835938
1993,-236.8125,67.125,124.1875,2.123047,-0.9716797,-1.354004,-0.1308594,-0.1074219,-0.1835938
1994,-121.9375,131.5,107.4375,4.050781,-2.193848,-2.93457,-0.1333008,-0.1005859,-0.1889648
1996,69,280.25,38.875,7.94873,-3.222168,-5.521484,-0.1308594,-0.09521484,-0.1914063
1997,135,824.5625,-5,7.94873,-1.355957,-0.4287109,-0.1308594,-0.09521484,-0.1914063
1999,109.0625,1156.438,-4.3125,2.878906,1.259277,2.840332,-0.1176758,-0.09912109,-0.1982422
2000,33.875,952.4375,21.5,-6.333984,1.624023,4.158691,-0.09570313,-0.1035156,-0.2080078
2002,3.375,578,46.1875,-7.996582,0.215332,4.33252,-0.09570313,-0.1035156,-0.2080078
2003,6.375,332.375,63.4375,-6.251953,-0.4125977,4.733398,-0.07763672,-0.1020508,-0.2148438
2005,14.125,268.4375,57.25,-2.541016,-0.8085938,4.031738,-0.06738281,-0.105957,-0.2177734
2006,20.8125,275,31,-0.5512695,-1.759277,3.164063,-0.06738281,-0.105957,-0.2177734
2008,35.5,289.1875,1.375,0.184082,-1.681641,3.256836,-0.06054688,-0.1044922,-0.2202148
2009,50.75,286.0625,-20,0.3085938,-1.89502,2.786621,-0.05566406,-0.1044922,-0.2231445
2011,57,279.1875,-39.875,0.5385742,-1.352051,2.632324,-0.05566406,-0.1044922,-0.2231445
2012,63.75,294.9375,-51.5,0.6787109,-0.6728516,2.315918,-0.04638672,-0.1074219,-0.2246094
2014,75.375,302.375,-52.25,0.1142578,-0.08691406,1.745605,-0.04003906,-0.1098633,-0.2260742
2015,78.6875,287.75,-41.5,-0.4931641,0.5063477,1.313477,-0.04003906,-0.1098633,-0.2260742
2017,200.75,102.3125,41.3125,3.906738,0.3588867,2.682129,-0.03076172,-0.1098633,-0.2270508
2018,85.6875,597.4375,-51.25,7.306152,3.847656,7.817871,-0.02587891,-0.1152344,-0.2246094
2020,14,550.5,-67,-4.5,0.7587891,-1.041504,-0.02587891,-0.1152344,-0.2246094
2021,49.0625,188.5625,16.75,-6.298828,0.3007813,-2.757324,-0.01269531,-0.1166992,-0.2246094
2023,32.125,138.875,-9.75,-0.527832,0.5957031,5.215332,-0.007324219,-0.1181641,-0.2260742
2024,-0.875,238.9375,-23.4375,-0.2905273,0.5839844,3.098633,-0.007324219,-0.1181641,-0.2260742
2026,0.5,163.5,-13.6875,-1.248535,-0.3427734,-0.1318359,-0.0009765625,-0.1181641,-0.2260742
2027,26.125,129.4375,-12,0.1801758,-0.6689453,0.5117188,0.002441406,-0.1181641,-0.2285156
2029,28.4375,177.25,-20.5,0.8227539,-0.04785156,1.382813,0.002441406,-0.1181641,-0.2285156
2030,11.1875,212.1875,-26.125,0.2543945,0.5722656,1.394531,0.007324219,-0.1191406,-0.2246094
2032,-2.9375,184.9375,-26.6875,-0.6914063,0.5336914,0.8393555,0.01269531,-0.1191406,-0.2260742
2033,-8.6875,152.25,-27.0625,-0.8198242,0.2851563,1.151855,0.01269531,-0.1191406,-0.2260742
2035,-13.5,137.0625,-25.875,-0.652832,0.1958008,1.463867,0.01806641,-0.1181641,-0.2260742
2036,-17.5,125.0625,-24.3125,-0.5512695,0.1494141,1.375488,0.02050781,-0.1181641,-0.2260742
2038,-19.125,114.4375,-23.3125,-0.3603516,0.1142578,1.170898,0.02050781,-0.1181641,-0.2260742
2039,-22.8125,110.8125,-22.6875,-0.1738281,0.1611328,1.089844,0.02441406,-0.1181641,-0.2246094
2041,-25.5,114,-23.6875,-0.1699219,0.1918945,1.19043,0.02587891,-0.1152344,-0.2231445
2042,-29.625,110.5625,-24.4375,-0.3525391,0.199707,1.197754,0.02587891,-0.1152344,-0.2231445
2044,-32.125,99.125,-23.6875,-0.4931641,0.1572266,1.205566,0.02929688,-0.1166992,-0.2246094
2045,-33.0625,85.875,-21.875,-0.4892578,0.1220703,1.186523,0.03222656,-0.1166992,-0.2260742
2047,-31.625,75.0625,-20.0625,-0.3603516,0.04443359,1.140137,0.03222656,-0.1166992,-0.2260742
2048,-28.5625,70.3125,-18.375,-0.2592773,-0.01708984,1.105469,0.03320313,-0.1137695,-0.2270508
2050,-24.9375,67.125,-16.5625,-0.2241211,-0.03662109,1.109375,0.03710938,-0.112793,-0.2231445
2051,-22.125,62.5625,-14.75,-0.2709961,-0.009277344,1.113281,0.03710938,-0.112793,-0.2231445
2053,-20.5,56.8125,-13.3125,-0.2983398,0.03662109,1.117188,0.03857422,-0.1152344,-0.2260742
2054,-19.4375,50,-12.5,-0.2944336,0.05615234,1.113281,0.03857422,-0.112793,-0.2260742
2056,-19,45.6875,-11.5,-0.2241211,0.04052734,1.070801,0.03857422,-0.112793,-0.2260742
2057,-16.875,43.0625,-10.625,-0.1503906,0.005859375,1.016602,0.04101563,-0.112793,-0.2260742
2059,-13.8125,42.5,-9.375,-0.1308594,-0.03271484,1.02832,0.04003906,-0.1137695,-0.2260742
2060,-11.0625,42.0625,-8.1875,-0.1621094,-0.009277344,1.032227,0.04003906,-0.1137695,-0.2260742
2062,-9.3125,39.4375,-7,-0.2163086,0.02148438,1.059082,0.04394531,-0.1113281,-0.2260742
2065,-7.75,34.3125,-6.125,-0.2749023,0.03320313,1.078613,0.04394531,-0.1113281,-0.2270508
2067,-6,29.25,-5.125,-0.2553711,0.02539063,1.078613,0.04394531,-0.1113281,-0.2270508
2068,-3.75,26.0625,-4.0625,-0.2202148,0.005859375,1.059082,0.04492188,-0.1113281,-0.2246094
2070,-0.75,23.6875,-3,-0.1777344,-0.02490234,1.036133,0.04492188,-0.1113281,-0.2246094
2071,2.1875,22.8125,-2.0625,-0.1542969,-0.03662109,1.016602,0.04492188,-0.1113281,-0.2246094
2073,5.375,22.5625,-0.75,-0.1425781,-0.01708984,1.020508,0.04492188,-0.1098633,-0.2246094
2074,8,21.4375,-0.25,-0.1699219,-0.005371094,1.02832,0.04785156,-0.1113281,-0.2260742
2076,10,20.6875,0.375,-0.1621094,-0.005371094,1.024414,0.04785156,-0.1113281,-0.2260742
2077,12.625,19.25,1.0625,-0.1738281,-0.02490234,1.040039,0.04638672,-0.1113281,-0.2270508
2079,15.5,18.4375,2.0625,-0.1777344,-0.02490234,1.047363,0.04638672,-0.1113281,-0.2246094
2080,17.75,16.6875,2.9375,-0.1777344,-0.03271484,1.043945,0.04638672,-0.1113281,-0.2246094
2082,18.9375,14.75,3.4375,-0.2045898,0.01367188,1.062988,0.04785156,-0.1113281,-0.2246094
2083,19.125,11.625,3.6875,-0.2124023,0.05224609,1.062988,0.04785156,-0.1137695,-0.2260742
2085,19.0625,10.375,3.5,-0.1777344,0.06396484,1.043945,0.04785156,-0.1137695,-0.2260742
2086,18.5625,9.6875,3.3125,-0.1503906,0.06787109,1.012695,0.04785156,-0.1152344,-0.2231445
2088,17.5,9.875,3.0625,-0.1308594,0.08349609,0.9936523,0.04785156,-0.1152344,-0.2231445
2089,16.1875,11,2.5625,-0.1191406,0.08740234,0.9897461,0.04785156,-0.1152344,-0.2231445
2091,14.8125,11.3125,2.0625,-0.1425781,0.1108398,0.9936523,0.04882813,-0.1152344,-0.2231445
2092,13,10.875,1.5625,-0.1582031,0.1108398,1.005371,0.04882813,-0.1152344,-0.2231445
2094,11.5625,10.125,1.0625,-0.1699219,0.1142578,1.020508,0.04882813,-0.1152344,-0.2231445
2095,10,9.5,1,-0.1503906,0.09912109,0.9858398,0.04785156,-0.1152344,-0.2216797
2097,8.8125,9.4375,0.625,-0.1503906,0.09912109,0.9936523,0.04882813,-0.1166992,-0.2231445
2098,7.8125,9.5,0.5,-0.1503906,0.09912109,0.9897461,0.04882813,-0.1166992,-0.2231445
2100,7.0625,9.5625,0.375,-0.1386719,0.08349609,1.001465,0.04882813,-0.1152344,-0.2216797
2101,6.6875,10.25,0.3125,-0.1269531,0.06787109,0.9897461,0.05175781,-0.1181641,-0.2216797
2103,6,10.9375,0.25,-0.1269531,0.07177734,0.9667969,0.05175781,-0.1181641,-0.2216797
2104,5.3125,12.1875,-0.0625,-0.1074219,0.08740234,0.9628906,0.04882813,-0.1181641,-0.2216797
2106,4.25,13.0625,-0.25,-0.1230469,0.08740234,0.9741211,0.04882813,-0.1181641,-0.2231445
2107,3.0625,13.9375,-0.3125,-0.1191406,0.07958984,0.9628906,0.04882813,-0.1181641,-0.2231445
2109,1.8125,14.9375,-0.75,-0.1074219,0.09912109,0.9550781,0.04785156,-0.1152344,-0.2231445
2110,0.125,16.875,-1.3125,-0.09570313,0.1142578,0.9741211,0.05029297,-0.1152344,-0.2216797
2112,-1.125,18.4375,-2,-0.1113281,0.1108398,0.9628906,0.05029297,-0.1152344,-0.2216797
2113,-2.75,19.25,-2.25,-0.1269531,0.09521484,0.9819336,0.05175781,-0.1166992,-0.2216797
2115,-3.5,20.25,-2.8125,-0.1347656,0.09130859,0.9858398,0.05029297,-0.1137695,-0.2231445
2116,-4.1875,20.9375,-3.125,-0.1347656,0.08740234,0.9858398,0.05029297,-0.1137695,-0.2231445
2118,-4.9375,20.8125,-3.25,-0.1660156,0.08349609,0.9897461,0.05175781,-0.1137695,-0.2202148
2119,-5.6875,20,-3.4375,-0.1777344,0.09130859,0.9975586,0.05419922,-0.112793,-0.2216797
2121,-6.0625,19.6875,-3.5,-0.1777344,0.07958984,0.9975586,0.05419922,-0.112793,-0.2216797
2122,-6.8125,19.5625,-3.5625,-0.1777344,0.06787109,0.9975586,0.05273438,-0.1152344,-0.2246094
2124,-6.5625,19.5625,-3.5,-0.1660156,0.06396484,0.9897461,0.05664063,-0.1137695,-0.2231445
2125,-6.875,18.5625,-3.4375,-0.2006836,0.09130859,1.001465,0.05664063,-0.1137695,-0.2231445
2127,-7.4375,16.9375,-3.125,-0.2084961,0.07568359,0.9975586,0.05566406,-0.1152344,-0.2246094
2128,-6.6875,15.5,-2.75,-0.1967773,0.06005859,1.008789,0.05664063,-0.1166992,-0.2231445
2130,-6.75,13.75,-2.4375,-0.2241211,0.07568359,1.024414,0.05664063,-0.1166992,-0.2231445
2131,-6.625,12.1875,-2.4375,-0.2124023,0.07958984,0.9975586,0.05566406,-0.1181641,-0.2216797
2133,-6.6875,11.3125,-2.3125,-0.1855469,0.07958984,0.9819336,0.05810547,-0.1191406,-0.2231445
