Using settings file RTIMULib.ini
IMU Name: L3GD20 + LSM303DLHC
IMU Init Succeeded
Recommended Poll Interval: 4mS

Time, gyroX, gyroY, gyroZ, accelX, accelY, accelZ, magX, magY, magZ, phi, theta, psi

149391534.088786, 0.051109, -0.039846, -0.070234, 0.014889, -0.077416, 0.997629, -2.577474, 2.111707, 11.868115, -0.077445, -0.014878, -2.308990

149391534.089578, 0.054219, -0.028841, -0.055001, 0.014889, -0.077416, 0.997629, -4.639452, 3.841889, 21.432579, -0.077018, -0.015134, -2.309316

149391534.090324, 0.036333, -0.025842, -0.041584, 0.014889, -0.077416, 0.997629, -6.289036, 5.226034, 29.084150, -0.076756, -0.015341, -2.309490

149391534.091202, 0.042137, -0.024314, -0.043111, -0.000000, -0.077416, 0.950865, -7.608702, 6.333350, 35.205406, -0.076485, -0.015273, -2.308922

149391534.092218, 0.050519, -0.029185, -0.050576, -0.000000, -0.077416, 0.950865, -8.664435, 7.219203, 40.102413, -0.076077, -0.015298, -2.308484

149391534.093280, 0.052146, -0.037839, -0.056388, -0.000000, -0.077416, 0.997629, -9.509022, 7.927886, 44.020020, -0.075559, -0.015430, -2.308268

149391534.094295, 0.042078, -0.044219, -0.057593, -0.000000, -0.077416, 0.997629, -10.184691, 8.494831, 47.154102, -0.075176, -0.015605, -2.308035

149391534.095316, 0.048966, -0.043288, -0.048307, -0.000000, -0.108382, 0.982041, -10.725226, 8.948388, 49.661369, -0.075388, -0.015794, -2.306576

149391534.096336, 0.056308, -0.048955, -0.030247, -0.000000, -0.108382, 0.982041, -11.054974, 9.352050, 51.643860, -0.075527, -0.016023, -2.304847

149391534.097393, 0.076351, -0.047625, -0.010474, -0.000000, -0.092899, 0.966453, -11.318771, 9.674979, 53.229851, -0.075154, -0.016219, -2.303342

149391534.098416, 0.083116, -0.049612, 0.011274, -0.000000, -0.092899, 0.966453, -11.529809, 9.933323, 54.498646, -0.074749, -0.016400, -2.301579

149391534.099437, 0.080768, -0.041990, 0.035854, -0.000000, -0.061933, 0.982041, -11.678103, 10.201222, 55.420383, -0.073716, -0.016461, -2.300716

149391534.100456, 0.071593, -0.034528, 0.037492, -0.000000, -0.061933, 0.982041, -11.796739, 10.415542, 56.157776, -0.072798, -0.016446, -2.299774

149391534.101512, 0.068292, -0.029615, 0.021154, 0.014889, -0.046450, 0.982041, -11.891646, 10.586997, 56.747688, -0.071584, -0.016719, -2.300266

149391534.102553, 0.065957, -0.029888, 0.007553, 0.014889, -0.046450, 0.982041, -11.967573, 10.683346, 57.312916, -0.070426, -0.016994, -2.300864

149391534.103578, 0.058932, -0.038746, -0.007414, -0.046891, -0.092899, 0.950865, -12.028315, 10.760425, 57.765095, -0.070510, -0.016130, -2.296598

149391534.104595, 0.076827, -0.057066, -0.018022, -0.000000, -0.092899, 0.950865, -12.076907, 10.822087, 58.126839, -0.070295, -0.016412, -2.294898

149391534.105617, 0.090459, -0.082775, -0.018240, -0.000000, -0.092899, 0.950865, -12.115782, 10.871418, 58.416233, -0.069943, -0.016949, -2.293203

149391534.106647, 0.090765, -0.108737, -0.029236, 0.074444, -0.108382, 1.106744, -12.167418, 10.890474, 58.624424, -0.069598, -0.019050, -2.294334

149391534.107672, 0.156738, -0.122787, -0.059474, 0.074444, -0.108382, 1.106744, -12.208726, 10.905719, 58.790977, -0.068593, -0.021264, -2.295749

149391534.108699, 0.157654, -0.143556, -0.092766, -0.000000, -0.077416, 0.966453, -12.241773, 10.917914, 58.924221, -0.067229, -0.022351, -2.295395

149391534.109770, 0.149713, -0.154552, -0.104678, -0.000000, -0.077416, 0.966453, -12.227138, 11.050120, 59.030815, -0.065903, -0.023605, -2.295104

149391534.110802, 0.136885, -0.138058, -0.106816, 0.059555, -0.046450, 0.982041, -12.215429, 11.155885, 59.116093, -0.064165, -0.025826, -2.298515

149391534.111825, 0.122641, -0.092993, -0.100680, 0.059555, -0.046450, 0.982041, -12.206063, 11.240497, 59.184315, -0.062610, -0.027531, -2.301754

149391534.112848, 0.096737, -0.048577, -0.083909, 0.044666, -0.061933, 0.982041, -12.116425, 11.369411, 59.215569, -0.061632, -0.028425, -2.303436

149391534.113871, 0.070481, -0.003601, -0.076462, 0.044666, -0.061933, 0.982041, -12.044713, 11.472542, 59.240570, -0.060937, -0.028846, -2.304921

149391534.114892, 0.025277, 0.059013, -0.088984, 0.104221, -0.015483, 0.982041, -11.987344, 11.555046, 59.260571, -0.059936, -0.029944, -2.310485

149391534.115951, -0.024291, 0.135212, -0.117609, 0.104221, -0.015483, 0.982041, -12.105740, 11.539417, 59.206600, -0.059447, -0.030225, -2.316388

149391534.116982, -0.076215, 0.203935, -0.153039, 0.089333, -0.030966, 0.950865, -12.200457, 11.526915, 59.163425, -0.059742, -0.029572, -2.321510

149391534.118010, -0.118059, 0.235394, -0.183277, 0.089333, -0.030966, 0.950865, -12.276230, 11.516912, 59.128883, -0.060444, -0.028639, -2.326899

149391534.119037, -0.115921, 0.217985, -0.203130, 0.029778, -0.061933, 0.997629, -12.336848, 11.508910, 59.101250, -0.061581, -0.026598, -2.328918

149391534.120058, -0.078659, 0.165145, -0.216875, 0.029778, -0.061933, 0.997629, -12.488025, 11.441284, 59.125793, -0.062318, -0.025146, -2.331144

149391534.121080, -0.016350, 0.100393, -0.220845, 0.014889, -0.077416, 0.982041, -12.608966, 11.387183, 59.145428, -0.062758, -0.024090, -2.332212

149391534.122104, 0.051761, 0.053051, -0.203741, 0.014889, -0.077416, 0.982041, -12.705719, 11.343903, 59.161133, -0.062513, -0.023516, -2.333159

149391534.123127, 0.081694, 0.026173, -0.177474, -0.000000, -0.108382, 1.013217, -12.680440, 11.390911, 59.173698, -0.062564, -0.022957, -2.332170

149391534.124201, 0.100306, 0.022931, -0.135465, -0.000000, -0.108382, 1.013217, -12.660216, 11.428517, 59.183750, -0.062385, -0.022408, -2.330812

149391534.125223, 0.089616, 0.049809, -0.084764, 0.029778, -0.077416, 0.966453, -12.644038, 11.458603, 59.191792, -0.061816, -0.022135, -2.331070

149391534.126240, 0.066799, 0.082847, -0.035737, 0.029778, -0.077416, 0.966453, -12.713241, 11.441854, 59.221550, -0.061501, -0.021509, -2.330909

149391534.127258, 0.056414, 0.108198, -0.011608, 0.029778, -0.030966, 0.904101, -12.768602, 11.428455, 59.245354, -0.060398, -0.020685, -2.332479

149391534.128290, 0.036688, 0.097847, -0.018240, 0.029778, -0.030966, 0.904101, -12.812892, 11.417736, 59.264397, -0.059508, -0.019970, -2.334116

149391534.129318, 0.023555, 0.069747, -0.048783, 0.044666, -0.092899, 0.904101, -12.848324, 11.409161, 59.279633, -0.060108, -0.019893, -2.334053

149391534.130342, 0.032029, 0.018644, -0.085730, 0.044666, -0.092899, 0.904101, -12.876669, 11.402301, 59.291821, -0.060606, -0.020355, -2.334350

149391534.131410, 0.050966, -0.037555, -0.115357, 0.029778, -0.046450, 0.888513, -12.899345, 11.396812, 59.301571, -0.059885, -0.021084, -2.336224

149391534.132431, 0.047800, -0.074439, -0.122795, 0.029778, -0.046450, 0.888513, -12.917486, 11.392422, 59.309372, -0.059232, -0.022151, -2.338076

149391534.133451, 0.042907, -0.089616, -0.107951, 0.029778, -0.046450, 0.888513, -12.993608, 11.450134, 59.268967, -0.058644, -0.023336, -2.339745

149391534.134471, 0.012103, -0.079058, -0.085047, 0.029778, -0.046450, 0.904101, -13.054506, 11.496305, 59.236641, -0.058360, -0.024368, -2.341183

149391534.135536, -0.024929, -0.059753, -0.065317, 0.029778, -0.046450, 0.904101, -13.103224, 11.533240, 59.210781, -0.058466, -0.025203, -2.342441

149391534.136557, -0.036230, -0.046314, -0.059208, 0.044666, -0.046450, 0.950865, -13.121662, 11.542381, 59.213417, -0.058634, -0.026140, -2.344225

149391534.137571, -0.049820, -0.028595, -0.063044, 0.044666, -0.046450, 0.950865, -13.136413, 11.549694, 59.215527, -0.058928, -0.026881, -2.346022

149391534.138596, -0.070000, -0.000185, -0.067099, 0.044666, -0.030966, 0.982041, -13.148212, 11.555544, 59.217213, -0.059083, -0.027318, -2.348526

149391534.139622, -0.091250, 0.035101, -0.080637, 0.044666, -0.030966, 0.982041, -13.260334, 11.499000, 59.171913, -0.059444, -0.027403, -2.351247

149391534.140645, -0.109960, 0.044827, -0.110932, 0.029778, -0.030966, 0.950865, -13.350032, 11.453764, 59.135674, -0.059980, -0.027117, -2.353747

149391534.141712, -0.116317, 0.037305, -0.142982, 0.029778, -0.030966, 0.950865, -13.421790, 11.417575, 59.106682, -0.060610, -0.026920, -2.356649

149391534.142735, -0.107764, 0.024171, -0.168944, 0.014889, -0.030966, 0.950865, -13.479197, 11.388624, 59.083488, -0.061080, -0.026567, -2.359136

149391534.143756, -0.090049, -0.005455, -0.192462, 0.014889, -0.030966, 0.950865, -13.525122, 11.324647, 59.088261, -0.061355, -0.026533, -2.361867

149391534.144770, -0.073556, -0.036915, -0.225755, -0.000000, -0.030966, 0.966453, -13.561862, 11.273465, 59.092075, -0.061438, -0.026509, -2.364279

149391534.145798, -0.053397, -0.051576, -0.250189, -0.000000, -0.030966, 0.966453, -13.591254, 11.232520, 59.095127, -0.061319, -0.026655, -2.366963

149391534.146866, -0.032628, -0.061044, -0.262406, -0.015630, -0.046450, 0.950865, -13.532622, 11.220172, 59.120895, -0.061368, -0.026591, -2.368316

149391534.147888, -0.026214, -0.056768, -0.249884, -0.015630, -0.046450, 0.950865, -13.485717, 11.210293, 59.141510, -0.061344, -0.026443, -2.369371

149391534.148907, -0.012775, -0.054325, -0.216286, -0.015630, -0.077416, 0.997629, -13.448193, 11.202390, 59.158001, -0.061790, -0.026297, -2.368965

149391534.149936, -0.003237, -0.050191, -0.166284, -0.015630, -0.077416, 0.997629, -13.418173, 11.053210, 59.194515, -0.062144, -0.026088, -2.368155

149391534.150961, 0.010286, -0.050031, -0.114644, -0.000000, -0.108382, 1.028805, -13.394157, 10.933867, 59.223728, -0.062901, -0.026196, -2.366616

149391534.151984, 0.019638, -0.034327, -0.067679, -0.000000, -0.108382, 1.028805, -13.374945, 10.838393, 59.247097, -0.063561, -0.026113, -2.364685

149391534.153057, 0.008948, 0.005990, -0.030722, 0.014889, -0.061933, 1.013217, -13.339039, 10.802830, 59.219147, -0.063410, -0.025841, -2.364701

149391534.154078, -0.007985, 0.038156, -0.006155, 0.014889, -0.061933, 1.013217, -13.310314, 10.774379, 59.196785, -0.063442, -0.025240, -2.364477

149391534.155101, -0.016842, 0.047319, -0.004933, 0.014889, -0.123865, 0.950865, -13.287334, 10.751618, 59.178898, -0.064941, -0.024663, -2.361856

149391534.156128, 0.042117, 0.014629, -0.028750, 0.014889, -0.123865, 0.950865, -13.268950, 10.733410, 59.164585, -0.065812, -0.024437, -2.359504

149391534.157151, 0.080399, -0.060131, -0.106184, 0.014889, -0.108382, 0.966453, -13.274779, 10.739251, 59.199783, -0.065907, -0.024973, -2.358481

149391534.158174, 0.059019, -0.117858, -0.127259, 0.014889, -0.108382, 0.966453, -13.279443, 10.743924, 59.227943, -0.066210, -0.026089, -2.357650

149391534.159196, 0.064355, -0.111190, -0.083018, -0.000000, -0.092899, 0.997629, -13.283174, 10.747663, 59.250469, -0.066105, -0.026761, -2.356400

149391534.160271, 0.066588, -0.077753, -0.036420, -0.000000, -0.092899, 0.997629, -13.265621, 10.709837, 59.268490, -0.065956, -0.027095, -2.354757

149391534.161299, 0.040626, -0.052402, -0.008931, -0.000000, 0.217229, 0.950865, -13.251579, 10.679577, 59.282906, -0.059925, -0.029964, -2.374638

149391534.162321, 0.099575, -0.091192, -0.787784, 0.401997, 0.217229, 0.950865, -13.240346, 10.655369, 59.294441, -0.056360, -0.040367, -2.397995

149391534.163344, 0.135310, -0.096385, -1.445076, 0.401997, 0.217229, 0.950865, -13.292969, 10.636002, 59.257023, -0.051941, -0.050875, -2.427533

149391534.164364, -0.052836, 0.009906, -0.387973, -0.015630, -0.092899, 0.982041, -13.335067, 10.620508, 59.227085, -0.053252, -0.049733, -2.427358

149391534.165386, -0.058302, 0.016575, 0.042685, -0.015630, -0.092899, 0.982041, -13.368746, 10.608113, 59.203136, -0.054804, -0.048316, -2.422921

149391534.166454, -0.053110, -0.024659, 0.074145, 0.029778, -0.061933, 0.966453, -13.395689, 10.577789, 59.230625, -0.055589, -0.048183, -2.421364

149391534.167475, -0.016111, -0.047761, 0.084245, 0.029778, -0.061933, 0.966453, -13.314561, 10.553531, 59.252617, -0.055967, -0.048267, -2.419723

149391534.168501, -0.001121, -0.055128, 0.086657, 0.029778, -0.046450, 0.966453, -13.249659, 10.534123, 59.270210, -0.055864, -0.048422, -2.418734

149391534.169531, -0.025317, -0.054565, 0.088421, 0.029778, -0.046450, 0.966453, -13.197737, 10.518598, 59.284283, -0.056008, -0.048568, -2.417721

149391534.170546, -0.079501, -0.054911, 0.099716, 0.029778, -0.092899, 0.966453, -13.197272, 10.465361, 59.342190, -0.057662, -0.048737, -2.414737

149391534.171570, -0.028193, -0.057642, 0.108679, 0.029778, -0.092899, 0.966453, -13.196900, 10.422771, 59.388515, -0.058780, -0.048925, -2.411735

149391534.172638, 0.010972, -0.053439, 0.121641, 0.014889, -0.061933, 0.997629, -13.196603, 10.388699, 59.425575, -0.058812, -0.048729, -2.409330

149391534.173660, 0.019113, -0.044839, 0.122668, 0.014889, -0.061933, 0.997629, -13.175829, 10.422666, 59.431900, -0.058764, -0.048431, -2.406985

149391534.174683, -0.006238, -0.048809, 0.107091, 0.029778, -0.046450, 0.935277, -13.159209, 10.449840, 59.436958, -0.058696, -0.048524, -2.406021

149391534.175704, -0.002818, -0.062134, 0.082710, 0.029778, -0.046450, 0.935277, -13.145914, 10.471579, 59.441006, -0.058583, -0.048762, -2.405288

149391534.176725, 0.010927, -0.094815, 0.090040, -0.078151, -0.092899, 0.950865, -13.094205, 10.468562, 59.490891, -0.059754, -0.047213, -2.397056

149391534.177747, -0.010148, -0.107032, 0.377452, -0.078151, -0.092899, 0.950865, -13.052837, 10.466148, 59.530800, -0.061232, -0.045634, -2.386061

149391534.178817, 0.024977, -0.084125, 0.715872, 0.044666, -0.030966, 0.966453, -13.019744, 10.464217, 59.562729, -0.060733, -0.046093, -2.380297

149391534.179848, 0.057658, -0.043502, 0.783372, 0.044666, -0.030966, 0.966453, -12.993269, 10.462672, 59.588272, -0.059942, -0.046082, -2.374248

149391534.180869, 0.015814, 0.008421, 0.762298, 0.059555, -0.046450, 0.966453, -12.972089, 10.522661, 59.538734, -0.059910, -0.045859, -2.368399

149391534.181884, -0.030306, 0.057290, 0.757716, 0.059555, -0.046450, 0.966453, -12.955145, 10.570652, 59.499104, -0.060329, -0.045161, -2.362742

149391534.182905, -0.066348, 0.082641, 0.716177, 0.059555, -0.046450, 0.997629, -12.941589, 10.609045, 59.467400, -0.061050, -0.044203, -2.357548

149391534.183974, -0.072456, 0.096691, 0.607749, 0.059555, -0.046450, 0.997629, -12.930745, 10.660168, 59.488682, -0.061810, -0.043123, -2.353224

149391534.184995, -0.046800, 0.103105, 0.446480, 0.014889, -0.046450, 0.982041, -12.922070, 10.701066, 59.505711, -0.062169, -0.041259, -2.349118

149391534.186016, -0.025114, 0.097607, 0.313312, 0.014889, -0.046450, 0.982041, -12.915130, 10.733785, 59.519333, -0.062242, -0.039570, -2.346392

149391534.187035, -0.027863, 0.093942, 0.225958, 0.014889, -0.015483, 0.966453, -12.930114, 10.821183, 59.460258, -0.061661, -0.038052, -2.346016

149391534.188060, -0.037443, 0.090470, 0.160204, 0.014889, -0.015483, 0.966453, -12.942101, 10.891102, 59.412998, -0.061163, -0.036634, -2.346241

149391534.189091, -0.034860, 0.071821, 0.075503, 0.014889, -0.015483, 0.950865, -12.951692, 10.947037, 59.375191, -0.060627, -0.035481, -2.347252

149391534.190118, -0.031500, 0.048302, 0.022969, 0.029778, -0.061933, 0.950865, -12.959363, 10.971377, 59.274971, -0.061039, -0.034897, -2.347214

149391534.191185, -0.035322, 0.034428, 0.020093, 0.029778, -0.061933, 0.950865, -12.965501, 10.990849, 59.194798, -0.061495, -0.034451, -2.347184

149391534.192205, -0.015443, 0.019352, 0.025650, 0.029778, -0.077416, 0.935277, -12.970410, 11.006428, 59.130657, -0.062080, -0.034193, -2.346439

149391534.193229, 0.005514, 0.001004, 0.019429, 0.029778, -0.077416, 0.935277, -12.974339, 11.018890, 59.079346, -0.062442, -0.034126, -2.345756

149391534.194261, -0.002974, -0.006791, 0.012741, 0.029778, -0.077416, 0.919689, -13.018554, 10.988044, 59.108269, -0.062907, -0.034154, -2.345165

149391534.195285, -0.014872, -0.010834, 0.003802, 0.029778, -0.077416, 0.919689, -13.053926, 10.963367, 59.131409, -0.063480, -0.034226, -2.344713

149391534.196309, -0.010596, -0.008696, -0.006583, 0.059555, -0.061933, 0.966453, -13.082223, 10.943624, 59.149918, -0.063614, -0.034861, -2.346235

149391534.197372, 0.015042, -0.000739, -0.060863, 0.059555, -0.061933, 0.966453, -13.043252, 10.989056, 59.118080, -0.063461, -0.035440, -2.348245

149391534.198394, 0.081016, -0.014178, -0.202584, 0.014889, -0.077416, 0.997629, -13.012075, 11.025400, 59.092609, -0.062867, -0.035305, -2.349272

149391534.199428, 0.111559, -0.026395, -0.291159, 0.014889, -0.077416, 0.997629, -12.987134, 11.054476, 59.072231, -0.061936, -0.035356, -2.351155

149391534.200455, 0.144851, -0.025785, -0.313761, -0.015630, -0.077416, 0.966453, -12.967181, 11.077736, 59.079254, -0.060793, -0.034805, -2.351714

149391534.201477, 0.084094, -0.009096, -0.087987, -0.015630, -0.077416, 0.966453, -12.951219, 11.096344, 59.084873, -0.060368, -0.033958, -2.349975

149391534.202486, 0.055689, -0.007874, 0.050374, 0.044666, -0.030966, 0.997629, -12.938449, 11.111231, 59.089367, -0.059258, -0.034249, -2.351422

149391534.203554, 0.025513, -0.017874, 0.075327, 0.044666, -0.030966, 0.997629, -12.928233, 11.123140, 59.092960, -0.058464, -0.034624, -2.352528

149391534.204583, -0.023462, -0.019292, 0.083907, 0.029778, -0.061933, 0.966453, -12.920060, 11.132668, 59.095837, -0.058841, -0.034691, -2.351620

149391534.205612, -0.047187, -0.029650, 0.078553, 0.029778, -0.061933, 0.966453, -12.913522, 11.140289, 59.098137, -0.059448, -0.034864, -2.350768

149391534.206637, -0.015098, -0.058627, 0.067929, 0.029778, -0.030966, 0.966453, -12.908291, 11.146387, 59.099979, -0.059074, -0.035348, -2.351368

149391534.207658, 0.026782, -0.073240, 0.052147, 0.029778, -0.030966, 0.966453, -12.945179, 11.151265, 59.124775, -0.058282, -0.035975, -2.352130

149391534.208683, 0.050437, -0.074987, 0.038192, 0.044666, -0.046450, 0.982041, -12.974689, 11.155168, 59.144611, -0.057576, -0.036899, -2.352920

149391534.209715, 0.076584, -0.078790, 0.014962, 0.044666, -0.046450, 0.982041, -12.998298, 11.158290, 59.160480, -0.056607, -0.037862, -2.353937

149391534.210744, 0.113842, -0.101351, -0.011366, 0.029778, -0.077416, 0.966453, -12.914503, 11.222013, 59.079880, -0.055926, -0.038755, -2.353243

149391534.211765, 0.130030, -0.113568, -0.019307, 0.029778, -0.077416, 0.966453, -12.847467, 11.272990, 59.015400, -0.055103, -0.039749, -2.352561

149391534.212833, 0.155992, -0.103794, -0.008006, 0.044666, -0.061933, 0.966453, -12.793839, 11.313772, 58.963818, -0.053649, -0.040963, -2.352919

149391534.213857, 0.152327, -0.083941, 0.001462, 0.044666, -0.061933, 0.966453, -12.750936, 11.325990, 59.062492, -0.052330, -0.041905, -2.353148

149391534.214880, 0.135366, -0.057357, 0.015485, 0.044666, -0.030966, 0.982041, -12.716613, 11.335764, 59.141434, -0.050567, -0.042556, -2.354545

149391534.215905, 0.107101, -0.027146, 0.022634, 0.044666, -0.030966, 0.982041, -12.689155, 11.343583, 59.204586, -0.049122, -0.042888, -2.355835

149391534.216930, 0.064035, 0.003703, 0.029048, 0.029778, -0.061933, 0.935277, -12.667189, 11.349838, 59.255108, -0.048834, -0.042619, -2.355062

149391534.217951, 0.023517, 0.020967, 0.025446, 0.029778, -0.061933, 0.935277, -12.670152, 11.456883, 59.295525, -0.048958, -0.042184, -2.354282

149391534.218976, -0.006878, 0.028898, 0.024313, 0.029778, -0.061933, 0.935277, -12.672523, 11.542520, 59.327858, -0.049383, -0.041678, -2.353478

149391534.220010, -0.031313, 0.026454, 0.023091, 0.014889, -0.061933, 0.982041, -12.674419, 11.611029, 59.353725, -0.049996, -0.040876, -2.352086

149391534.221036, -0.039025, 0.020216, 0.034565, 0.014889, -0.061933, 0.982041, -12.655400, 11.747469, 59.281124, -0.050678, -0.040148, -2.350507

149391534.222106, -0.006809, 0.007830, 0.044003, 0.014889, -0.077416, 0.982041, -12.640185, 11.856621, 59.223045, -0.051350, -0.039568, -2.348191

149391534.223129, 0.032504, -0.007285, 0.052346, 0.014889, -0.077416, 0.982041, -12.628013, 11.943942, 59.176582, -0.051613, -0.039150, -2.345790

149391534.224150, 0.034511, -0.009523, 0.077855, 0.014889, -0.046450, 0.982041, -12.638811, 11.911758, 59.186058, -0.051219, -0.038724, -2.344386

149391534.225170, 0.051425, 0.001441, 0.097146, 0.014889, -0.046450, 0.982041, -12.647449, 11.886011, 59.193638, -0.050669, -0.038188, -2.342848

149391534.226231, 0.049147, 0.019650, 0.104071, 0.044666, -0.030966, 0.966453, -12.654361, 11.865414, 59.199703, -0.049832, -0.038101, -2.343139

149391534.227255, 0.022099, 0.049436, 0.112943, 0.044666, -0.030966, 0.966453, -12.639354, 11.828527, 59.181232, -0.049302, -0.037722, -2.343404

149391534.228278, 0.002796, 0.075305, 0.109070, 0.029778, -0.046450, 0.982041, -12.627348, 11.799019, 59.166454, -0.049272, -0.036766, -2.342475

149391534.229304, -0.034937, 0.094351, 0.110362, 0.029778, -0.046450, 0.982041, -12.617743, 11.775412, 59.154633, -0.049622, -0.035633, -2.341568

149391534.230327, -0.067689, 0.116285, 0.122092, 0.014889, -0.046450, 0.982041, -12.610060, 11.756526, 59.145176, -0.050298, -0.033997, -2.339952

149391534.231350, -0.055799, 0.124601, 0.126698, 0.014889, -0.046450, 0.982041, -12.644985, 11.884274, 59.137608, -0.050840, -0.032308, -2.338267

149391534.232373, 0.001927, 0.066263, 0.087602, -0.015630, -0.061933, 0.904101, -12.672926, 11.986473, 59.131554, -0.051264, -0.030634, -2.334666

149391534.233440, 0.073647, -0.032009, 0.059745, -0.015630, -0.061933, 0.904101, -12.695278, 12.068233, 59.126713, -0.050920, -0.030004, -2.331309

149391534.234460, 0.080062, -0.089124, 0.075322, -0.000000, -0.030966, 0.966453, -12.754232, 12.031599, 59.029541, -0.049771, -0.030253, -2.330144

149391534.235482, 0.095639, -0.171591, 0.107698, -0.000000, -0.030966, 0.966453, -12.801396, 12.002293, 58.951805, -0.048499, -0.031308, -2.328697

149391534.236495, 0.025695, -0.245811, 0.167257, -0.062521, -0.232248, 1.013217, -12.839128, 11.978848, 58.889614, -0.052156, -0.032542, -2.318942

149391534.237562, 0.028443, -0.264137, 0.133049, -0.062521, -0.232248, 1.013217, -12.766630, 12.041723, 58.956482, -0.055696, -0.034054, -2.309551

149391534.238587, 0.231556, -0.223820, 0.000185, 0.044666, -0.061933, 0.950865, -12.708632, 12.092024, 59.009979, -0.053564, -0.036551, -2.310050

149391534.239612, 0.177189, -0.112643, -0.023638, 0.044666, -0.061933, 0.950865, -12.662234, 12.132265, 59.052776, -0.052010, -0.037895, -2.310785

149391534.240636, 0.183909, -0.135550, -0.052349, 0.044666, -0.030966, 0.966453, -12.625115, 12.164457, 59.087013, -0.049752, -0.039462, -2.313011

149391534.241660, 0.278898, -0.194193, -0.143062, 0.044666, -0.030966, 0.966453, -12.492739, 12.271844, 59.114403, -0.046549, -0.041622, -2.315915

149391534.242681, 0.383051, -0.189917, -0.184907, 0.238220, 0.046549, 1.044393, -12.386838, 12.357754, 59.136314, -0.041669, -0.047576, -2.326647

149391534.243748, 0.317688, -0.032619, -0.183990, 0.238220, 0.046549, 1.044393, -12.302117, 12.426481, 59.153843, -0.037336, -0.051822, -2.337255

149391534.244767, 0.148173, 0.134452, -0.121682, 0.044666, 0.015516, 0.982041, -12.234341, 12.563096, 59.097893, -0.034723, -0.050468, -2.341366

149391534.245787, 0.003625, 0.146572, -0.046762, 0.044666, 0.015516, 0.982041, -12.180120, 12.672388, 59.053135, -0.033647, -0.048985, -2.344518

149391534.246807, -0.055323, 0.064716, 0.010354, 0.044666, 0.015516, 1.044393, -12.136743, 12.759821, 59.017326, -0.033228, -0.048266, -2.346755

149391534.247865, -0.044938, -0.035772, 0.068386, 0.014889, -0.046450, 0.997629, -12.122577, 12.809360, 58.988682, -0.034022, -0.047956, -2.344434

149391534.248890, 0.011323, -0.091231, 0.115086, 0.014889, -0.046450, 0.997629, -12.111244, 12.848990, 58.965767, -0.034242, -0.048181, -2.341662

149391534.249915, 0.092568, -0.099478, 0.121805, 0.029778, -0.046450, 0.966453, -12.102179, 12.880695, 58.947433, -0.033657, -0.048797, -2.339471

149391534.250938, 0.116697, -0.122385, 0.107145, 0.029778, -0.046450, 0.966453, -12.012780, 12.987692, 58.956093, -0.032839, -0.049634, -2.337336

149391534.251962, 0.115781, -0.127883, 0.101341, 0.059555, -0.015483, 0.950865, -11.941261, 13.073289, 58.963020, -0.031408, -0.051153, -2.337703

149391534.252984, 0.078958, -0.076154, 0.099208, 0.059555, -0.015483, 0.950865, -11.884047, 13.141767, 58.968559, -0.030374, -0.052122, -2.338018

149391534.254051, 0.031549, -0.015647, 0.091737, 0.089333, -0.015483, 0.950865, -11.838275, 13.196549, 58.972992, -0.029862, -0.053103, -2.339390

149391534.255072, 0.023708, 0.033419, 0.085919, 0.089333, -0.015483, 0.950865, -11.801658, 13.281191, 58.929890, -0.029444, -0.053568, -2.340769

149391534.256092, 0.030122, 0.046858, 0.076756, 0.044666, -0.015483, 0.982041, -11.772364, 13.348905, 58.895409, -0.028908, -0.052918, -2.340429

149391534.257114, 0.025900, 0.038995, 0.075439, 0.044666, -0.015483, 0.982041, -11.748928, 13.403075, 58.867825, -0.028423, -0.052359, -2.340050

149391534.258133, 0.013096, 0.033091, 0.087306, 0.044666, -0.015483, 0.982041, -11.730180, 13.426003, 58.845757, -0.028083, -0.051867, -2.339531

149391534.259384, 0.001458, 0.040467, 0.095036, 0.044666, -0.015483, 0.982041, -11.715181, 13.444346, 58.828102, -0.027877, -0.051213, -2.338709

149391534.260234, -0.006048, 0.021077, 0.091839, 0.044666, 0.000000, 0.982041, -11.703182, 13.459021, 58.813976, -0.027406, -0.050914, -2.338950

149391534.261263, 0.012618, -0.005978, 0.084524, 0.044666, 0.000000, 0.982041, -11.734656, 13.511577, 58.802677, -0.026772, -0.050855, -2.339074

149391534.262288, 0.048831, -0.033061, 0.075568, 0.029778, -0.030966, 0.982041, -11.759835, 13.553621, 58.793636, -0.026425, -0.050759, -2.337349

149391534.263310, 0.068733, -0.038046, 0.080256, 0.029778, -0.030966, 0.982041, -11.779979, 13.587257, 58.786404, -0.025889, -0.050712, -2.335606

149391534.264332, 0.080442, -0.017810, 0.095012, 0.029778, 0.000000, 0.950865, -11.713948, 13.634574, 58.827267, -0.024611, -0.050483, -2.335003

149391534.265353, 0.083233, 0.007980, 0.097497, 0.029778, 0.000000, 0.950865, -11.661123, 13.672427, 58.859959, -0.023332, -0.049999, -2.334329

149391534.266422, 0.101254, 0.029971, 0.112768, 0.044666, 0.000000, 0.997629, -11.618863, 13.702710, 58.886112, -0.021861, -0.049563, -2.333977

149391534.267442, 0.127216, 0.048603, 0.106965, 0.044666, 0.000000, 0.997629, -11.585055, 13.726936, 58.907036, -0.020202, -0.048966, -2.333706

149391534.268465, 0.136989, 0.072426, 0.091083, 0.059555, -0.015483, 0.950865, -11.619618, 13.766726, 58.900448, -0.018800, -0.048495, -2.333616

149391534.269485, 0.125688, 0.077008, 0.079782, 0.059555, -0.015483, 0.950865, -11.647268, 13.798556, 58.895180, -0.017538, -0.047992, -2.333639

149391534.270508, 0.076819, 0.071510, 0.057485, 0.014889, 0.000000, 0.966453, -11.669389, 13.824021, 58.890965, -0.016451, -0.046610, -2.332585

149391534.271537, 0.062345, 0.055952, 0.039531, 0.014889, 0.000000, 0.966453, -11.707622, 13.946434, 58.887592, -0.015519, -0.045411, -2.331669

149391534.272601, 0.052062, 0.028461, 0.034213, 0.044666, -0.015483, 0.950865, -11.738208, 14.044364, 58.884895, -0.015007, -0.045139, -2.331451

149391534.273621, 0.033923, 0.013211, 0.023925, 0.044666, -0.015483, 0.950865, -11.762676, 14.122708, 58.882736, -0.014704, -0.045039, -2.331317

149391534.274642, 0.043973, 0.000973, 0.019833, 0.044666, 0.000000, 0.935277, -11.720642, 14.164976, 58.857685, -0.013980, -0.045085, -2.331860

149391534.275662, 0.017931, -0.004430, 0.011044, 0.044666, 0.000000, 0.935277, -11.687015, 14.198790, 58.837643, -0.013527, -0.045186, -2.332431

149391534.276729, -0.023410, 0.006727, 0.014698, 0.044666, 0.000000, 0.935277, -11.660112, 14.225841, 58.821609, -0.013509, -0.045168, -2.332911

149391534.277750, -0.060062, 0.024442, 0.024167, 0.029778, -0.015483, 0.997629, -11.638591, 14.247481, 58.808784, -0.014167, -0.044614, -2.331894

149391534.278772, -0.077036, 0.035887, 0.031432, 0.029778, -0.015483, 0.997629, -11.703519, 14.285202, 58.798523, -0.014984, -0.043955, -2.330849

149391534.279796, -0.098737, 0.040514, 0.025089, 0.029778, -0.015483, 0.966453, -11.755462, 14.315378, 58.790314, -0.016011, -0.043281, -2.329930

149391534.280812, -0.096060, 0.047136, 0.019777, 0.029778, -0.015483, 0.966453, -11.797016, 14.339520, 58.783749, -0.016980, -0.042559, -2.329100

149391534.281847, -0.069520, 0.047041, 0.011288, 0.029778, 0.000000, 0.950865, -11.768650, 14.358832, 58.731846, -0.017350, -0.041855, -2.328996

149391534.282875, -0.036661, 0.034389, 0.007462, 0.029778, 0.000000, 0.950865, -11.745957, 14.374283, 58.690327, -0.017375, -0.041296, -2.328902

149391534.283945, -0.017650, 0.017818, 0.002521, 0.029778, -0.015483, 0.950865, -11.727803, 14.386643, 58.657108, -0.017542, -0.040908, -2.328187

149391534.284968, -0.008009, 0.010865, -0.001718, 0.029778, -0.015483, 0.950865, -11.692743, 14.416940, 58.653858, -0.017600, -0.040607, -2.327484

149391534.285988, -0.017708, 0.013925, -0.008559, 0.029778, -0.015483, 0.982041, -11.664696, 14.441177, 58.651257, -0.017741, -0.040263, -2.326805

149391534.287009, -0.009561, 0.007353, -0.019442, 0.029778, -0.015483, 0.982041, -11.642258, 14.460567, 58.649178, -0.017793, -0.039993, -2.326218

149391534.288028, -0.002482, -0.005061, -0.030993, 0.029778, -0.015483, 0.966453, -11.665380, 14.455671, 58.694160, -0.017773, -0.039864, -2.325788

149391534.289095, -0.011699, -0.003160, -0.027649, 0.029778, -0.015483, 0.966453, -11.683877, 14.451754, 58.730148, -0.017852, -0.039721, -2.325363

149391534.290119, -0.012649, 0.006474, -0.027665, 0.029778, 0.000000, 0.982041, -11.698675, 14.448620, 58.758938, -0.017611, -0.039472, -2.325563

149391534.291138, -0.006702, 0.016205, -0.023794, 0.029778, 0.000000, 0.982041, -11.710514, 14.446113, 58.781971, -0.017317, -0.039130, -2.325731

149391534.292155, -0.020315, 0.026030, -0.013725, 0.029778, 0.000000, 0.966453, -11.802131, 14.382883, 58.800396, -0.017167, -0.038707, -2.325929

149391534.293181, -0.016598, 0.037143, -0.015828, 0.029778, 0.000000, 0.966453, -11.875424, 14.332299, 58.815136, -0.016984, -0.038180, -2.326236

149391534.294250, -0.000102, 0.023205, -0.010113, 0.044666, 0.000000, 0.982041, -11.934059, 14.291832, 58.826927, -0.016644, -0.038090, -2.327154

149391534.295271, 0.009468, -0.000307, -0.006013, 0.044666, 0.000000, 0.982041, -11.960430, 14.361499, 58.836361, -0.016217, -0.038248, -2.327973

149391534.296292, 0.019435, -0.008672, -0.004092, 0.044666, 0.000000, 0.982041, -11.981527, 14.417233, 58.843910, -0.015700, -0.038485, -2.328731

149391534.297308, 0.021418, -0.001613, -0.004604, 0.044666, 0.000000, 0.982041, -11.998405, 14.461820, 58.849949, -0.015173, -0.038646, -2.329460

149391534.298371, 0.017141, 0.010910, -0.002161, 0.029778, 0.031033, 0.919689, -12.011907, 14.436265, 58.808132, -0.014011, -0.038447, -2.331142

149391534.299394, 0.019173, 0.031013, -0.002713, 0.029778, 0.031033, 0.919689, -12.022708, 14.415821, 58.774677, -0.012858, -0.038052, -2.332819

149391534.300417, 0.016078, 0.042021, -0.001759, 0.029778, 0.000000, 0.950865, -12.031349, 14.399466, 58.747913, -0.012439, -0.037497, -2.332931

149391534.301439, 0.003779, 0.038445, 0.004258, 0.029778, 0.000000, 0.950865, -12.038262, 14.386381, 58.703178, -0.012153, -0.036988, -2.332994

149391534.302452, -0.018725, 0.028068, 0.003272, 0.029778, -0.015483, 0.950865, -12.043793, 14.375914, 58.667393, -0.012424, -0.036596, -2.332428

149391534.303520, -0.017733, 0.008341, 0.000213, 0.029778, -0.015483, 0.950865, -12.048217, 14.367540, 58.638763, -0.012688, -0.036404, -2.331909

149391534.304543, 0.003271, -0.013961, -0.005772, 0.029778, -0.015483, 0.950865, -12.051757, 14.360842, 58.615860, -0.012727, -0.036444, -2.331464

149391534.305566, 0.018751, -0.005594, -0.009537, 0.029778, 0.000000, 0.982041, -12.095661, 14.457523, 58.667507, -0.012281, -0.036379, -2.331639

149391534.306587, 0.012974, 0.012165, -0.002161, 0.029778, 0.000000, 0.982041, -12.130785, 14.534868, 58.708824, -0.011904, -0.036137, -2.331710

149391534.307607, 0.016289, 0.029251, -0.000022, 0.014889, 0.000000, 0.966453, -12.158884, 14.596745, 58.741879, -0.011509, -0.035426, -2.331097

149391534.308675, 0.024318, 0.048070, -0.001218, 0.014889, 0.000000, 0.966453, -12.160827, 14.605430, 58.721676, -0.011030, -0.034519, -2.330507

149391534.309695, 0.000185, 0.082340, 0.005685, 0.044666, 0.000000, 0.950865, -12.162381, 14.612377, 58.705513, -0.010814, -0.033948, -2.331168

149391534.310718, -0.046763, 0.121570, 0.014834, 0.044666, 0.000000, 0.950865, -12.163625, 14.617935, 58.692581, -0.011076, -0.032991, -2.331726

149391534.311738, -0.063718, 0.140240, 0.021698, 0.014889, 0.000000, 0.982041, -12.246764, 14.561157, 58.682236, -0.011502, -0.031227, -2.330987

149391534.312758, -0.069852, 0.133999, 0.020942, 0.014889, 0.000000, 0.982041, -12.313276, 14.515735, 58.673962, -0.011979, -0.029562, -2.330352

149391534.313820, -0.077052, 0.115330, 0.027379, 0.014889, 0.000000, 0.982041, -12.366486, 14.479397, 58.667339, -0.012551, -0.028068, -2.329718

149391534.314849, -0.067357, 0.090477, 0.032483, 0.014889, 0.000000, 0.982041, -12.409053, 14.450327, 58.662045, -0.012990, -0.026892, -2.329102

149391534.315872, -0.020491, 0.039237, 0.028211, -0.000000, -0.015483, 0.982041, -12.443107, 14.304622, 58.657806, -0.013278, -0.025959, -2.327359

149391534.316892, 0.020007, -0.002552, 0.023431, -0.000000, -0.015483, 0.982041, -12.470350, 14.188057, 58.654415, -0.013150, -0.025464, -2.325791

149391534.317949, 0.039619, -0.021934, 0.025928, 0.014889, -0.015483, 0.982041, -12.492145, 14.094806, 58.651703, -0.012802, -0.025482, -2.324972

149391534.318976, 0.044765, -0.017585, 0.034053, 0.014889, -0.015483, 0.982041, -12.509581, 14.203878, 58.626209, -0.012422, -0.025449, -2.324038

149391534.320011, 0.041131, -0.000172, 0.051875, 0.014889, -0.015483, 0.997629, -12.523529, 14.291137, 58.605816, -0.012084, -0.025235, -2.322893

149391534.321035, 0.036080, 0.015380, 0.061547, 0.014889, -0.015483, 0.997629, -12.534688, 14.360943, 58.589500, -0.011809, -0.024869, -2.321644

149391534.322056, 0.025154, 0.027614, 0.073706, 0.044666, -0.046450, 0.997629, -12.584688, 14.396379, 58.553123, -0.012265, -0.024989, -2.320401

149391534.323077, 0.028212, 0.032116, 0.083815, 0.044666, -0.046450, 0.997629, -12.624688, 14.424728, 58.524021, -0.012683, -0.025059, -2.319092

149391534.324101, 0.006527, 0.022648, 0.095116, 0.014889, 0.000000, 0.982041, -12.656688, 14.447408, 58.500740, -0.012387, -0.024622, -2.318237

149391534.325135, 0.000708, -0.006832, 0.102981, 0.014889, 0.000000, 0.982041, -12.682287, 14.506368, 58.458794, -0.012158, -0.024490, -2.317283

149391534.326162, 0.015980, -0.040124, 0.103592, 0.074444, 0.015516, 0.982041, -12.702767, 14.553535, 58.425236, -0.011541, -0.025944, -2.319247

149391534.327185, 0.029696, -0.064097, 0.097524, 0.074444, 0.015516, 0.982041, -12.719151, 14.591270, 58.398388, -0.010795, -0.027607, -2.321214

149391534.328252, 0.022672, -0.068068, 0.087139, 0.223331, 0.015516, 0.950865, -12.732259, 14.621458, 58.376911, -0.010713, -0.032422, -2.326860

149391534.329277, 0.010832, -0.057365, 0.071850, 0.223331, 0.015516, 0.950865, -12.681135, 14.747649, 58.406376, -0.010723, -0.037006, -2.332497

149391534.330307, 0.000142, -0.044843, 0.041306, 0.491329, 0.062065, 0.966453, -12.640237, 14.848602, 58.429951, -0.011541, -0.046280, -2.342016

149391534.331331, 0.032132, -0.041806, -0.025344, 0.491329, 0.062065, 0.966453, -12.607518, 14.929364, 58.448811, -0.011896, -0.055348, -2.351975

149391534.332355, 0.081002, -0.063491, -0.131023, 0.848660, 0.093098, 1.013217, -12.622416, 14.953157, 58.393925, -0.012814, -0.068965, -2.363837

149391534.333382, 0.194928, -0.068989, -0.205549, 0.848660, 0.093098, 1.013217, -12.634334, 14.972192, 58.350014, -0.012339, -0.082384, -2.376211

149391534.334407, 0.242881, -0.009124, -0.132245, 0.848660, 0.093098, 1.013217, -12.643867, 14.987420, 58.314888, -0.011288, -0.094927, -2.387604

149391534.335430, -0.132801, 0.181466, 0.361945, 0.774216, 0.077582, 0.982041, -12.692568, 15.101643, 58.263462, -0.014329, -0.104651, -2.393516

149391534.336499, -0.379896, 0.278288, 0.751371, 0.774216, 0.077582, 0.982041, -12.731528, 15.193021, 58.222321, -0.020375, -0.113030, -2.394996

149391534.337528, -0.477024, 0.177495, 0.572693, 1.280434, 0.279294, 1.013217, -12.762696, 15.266124, 58.189407, -0.026664, -0.127511, -2.400607

149391534.338551, -0.467250, 0.208954, -0.091623, 1.280434, 0.279294, 1.013217, -12.972458, 15.283790, 58.116428, -0.031762, -0.141588, -2.412826

149391534.339574, -0.337747, 0.226059, -0.497848, 0.908215, -0.030966, 1.262624, -13.140267, 15.297922, 58.058044, -0.036042, -0.149055, -2.424864

149391534.340602, 0.121929, 0.177190, -0.711956, 0.908215, -0.030966, 1.262624, -13.274515, 15.309228, 58.011337, -0.035164, -0.156944, -2.438879

149391534.341624, 0.477758, 0.067539, -0.842987, 0.744438, -0.185798, 1.106744, -13.381913, 15.318273, 57.973972, -0.032190, -0.164894, -2.451155

149391534.342645, 0.589241, -0.036919, -0.699128, 0.744438, -0.185798, 1.106744, -13.591049, 15.570407, 57.874111, -0.028262, -0.173673, -2.461655

149391534.343676, 0.795408, -0.229952, -0.791369, 0.580662, -0.154832, 1.044393, -13.758358, 15.772114, 57.794224, -0.021469, -0.182619, -2.472466

149391534.344748, 1.015320, -0.414433, -0.832602, 0.580662, -0.154832, 1.044393, -13.892205, 15.933479, 57.730312, -0.011896, -0.193372, -2.483821

149391534.345776, 1.064494, -0.510339, -0.906517, 0.491329, -0.170315, 0.732634, -14.081429, 16.429918, 57.539238, -0.003561, -0.206184, -2.494642

149391534.346792, 0.880319, -0.549740, -0.947750, 0.491329, -0.170315, 0.732634, -14.232807, 16.827070, 57.386379, 0.002923, -0.219041, -2.505525

149391534.347815, 0.549535, -0.485599, -0.966687, 0.133999, -0.263214, 0.748222, -14.353910, 17.144793, 57.264091, 0.003634, -0.224113, -2.507903

149391534.348848, 0.333900, -0.511561, -1.050681, 0.133999, -0.263214, 0.748222, -14.532938, 17.643867, 57.142937, 0.002450, -0.229411, -2.511142

149391534.349874, 0.386129, -0.692988, -1.218058, -0.125042, -0.123865, 1.013217, -14.676160, 18.043127, 57.046013, 0.004455, -0.230355, -2.510328

149391534.350904, 0.784413, -0.976429, -1.989275, -0.125042, -0.123865, 1.013217, -14.790737, 18.362535, 56.968475, 0.012323, -0.234084, -2.517622

149391534.351927, 1.127108, -1.068059, -2.559518, -0.844030, -0.418046, 1.091156, -14.882400, 18.618061, 56.906445, 0.011429, -0.235118, -2.513870

149391534.352994, 1.064494, -0.889381, -1.930633, -0.844030, -0.418046, 1.091156, -15.078948, 18.883707, 56.833496, 0.009166, -0.234703, -2.504694

149391534.354019, 0.787467, -0.597388, -1.200649, -0.844030, -0.108382, 1.075569, -15.236187, 19.096224, 56.775135, 0.003165, -0.228749, -2.482227

149391534.355040, 0.539761, -0.331967, -0.927286, -0.844030, -0.108382, 1.075569, -15.361978, 19.266237, 56.728447, -0.005582, -0.219950, -2.457588

149391534.356060, 0.280449, -0.092202, -0.697601, -1.015962, -0.061933, 1.028805, -15.503683, 19.381840, 56.714420, -0.019801, -0.207335, -2.428327

149391534.357079, 0.166523, 0.061125, -0.518923, -1.015962, -0.061933, 1.028805, -15.617047, 19.474321, 56.703201, -0.034791, -0.192932, -2.398225

149391534.358141, 0.230358, 0.025695, -0.489601, -1.000332, -0.030966, 0.982041, -15.707739, 19.548307, 56.694225, -0.048671, -0.178367, -2.368178

149391534.359165, 0.252655, -0.068378, -0.379646, -1.000332, -0.030966, 0.982041, -15.882974, 19.648312, 56.617073, -0.061882, -0.164533, -2.337774

149391534.360188, 0.170493, -0.152678, -0.300233, -0.906551, -0.015483, 1.137920, -16.023161, 19.728315, 56.555351, -0.072221, -0.152424, -2.309046

149391534.361212, 0.337565, -0.185359, -0.211658, -0.906551, -0.015483, 1.137920, -16.135311, 19.792318, 56.505974, -0.080394, -0.140532, -2.280221

149391534.362235, 0.504637, -0.095256, -0.057414, -0.906551, -0.015483, 1.137920, -16.163422, 19.823112, 56.396500, -0.086501, -0.127593, -2.250690

149391534.363258, 0.555033, 0.050130, 0.103243, -0.656468, 0.108614, 0.982041, -16.185911, 19.847748, 56.308918, -0.089320, -0.112973, -2.218703

149391534.364332, 0.547397, 0.158253, 0.230609, -0.656468, 0.108614, 0.982041, -16.203903, 19.867456, 56.238853, -0.091488, -0.097186, -2.186241

149391534.365355, 0.496695, 0.153977, 0.301164, -0.437645, 0.186196, 0.685870, -16.218296, 19.883223, 56.182804, -0.094006, -0.080229, -2.147584

149391534.366379, 0.437136, 0.068761, 0.316435, -0.437645, 0.186196, 0.685870, -16.270884, 20.038692, 56.044666, -0.096336, -0.064247, -2.109812

149391534.367399, 0.371163, -0.031421, 0.310327, -0.203192, 0.248262, 0.654694, -16.312952, 20.163069, 55.934158, -0.100752, -0.050015, -2.050673

149391534.368413, 0.302135, -0.116637, 0.296888, -0.203192, 0.248262, 0.654694, -16.346607, 20.262569, 55.845753, -0.104538, -0.036604, -1.993704

149391534.369479, 0.259985, -0.160314, 0.273064, -0.000000, 0.248262, 0.748222, -16.250315, 20.627886, 55.751701, -0.093775, -0.041572, -2.011018

149391534.370508, 0.176907, -0.159397, 0.243437, -0.000000, 0.248262, 0.748222, -16.173281, 20.920137, 55.676460, -0.084055, -0.046199, -2.028066

149391534.371531, 0.025718, -0.140766, 0.200982, 0.059555, 0.232745, 0.748222, -16.111652, 21.153940, 55.616268, -0.077004, -0.051519, -2.044294

149391534.372548, -0.113559, -0.150845, 0.184794, 0.059555, 0.232745, 0.748222, -15.939132, 21.361389, 55.591438, -0.071391, -0.056708, -2.060183

149391534.373567, -0.179227, -0.198493, 0.188459, 0.104221, 0.201713, 0.888513, -15.801115, 21.527349, 55.571575, -0.068049, -0.061704, -2.072083

149391534.374637, -0.149600, -0.257441, 0.196706, 0.104221, 0.201713, 0.888513, -15.690701, 21.660118, 55.555683, -0.064511, -0.067239, -2.083410

149391534.375648, -0.109894, -0.292260, 0.199149, 0.119110, 0.186196, 0.982041, -15.540762, 21.807148, 55.589619, -0.061156, -0.072478, -2.093007

149391534.376706, -0.024678, -0.312419, 0.202509, 0.119110, 0.186196, 0.982041, -15.420811, 21.924772, 55.616768, -0.057006, -0.077898, -2.102175

149391534.377719, 0.052596, -0.302645, 0.200371, 0.119110, 0.201713, 0.997629, -15.324849, 22.018871, 55.638489, -0.051890, -0.083018, -2.111696

149391534.378731, 0.060538, -0.221400, 0.189375, 0.119110, 0.201713, 0.997629, -15.248080, 22.094151, 55.655865, -0.046755, -0.087187, -2.121133

149391534.379777, 0.043433, -0.099227, 0.176853, 0.119110, 0.186196, 1.044393, -15.104520, 22.154375, 55.669765, -0.042229, -0.089713, -2.129379

149391534.380795, -0.014599, 0.043715, 0.155167, 0.119110, 0.186196, 1.044393, -14.989671, 22.202555, 55.680885, -0.038344, -0.090712, -2.137722

149391534.381819, -0.092790, 0.175051, 0.137452, 0.089333, 0.155164, 1.091156, -14.897792, 22.241098, 55.689781, -0.035814, -0.089374, -2.143930

149391534.382880, -0.106840, 0.251410, 0.122791, 0.089333, 0.155164, 1.091156, -14.783216, 22.292341, 55.673573, -0.033504, -0.087187, -2.150051

149391534.383891, -0.093706, 0.283785, 0.122486, 0.074444, 0.077582, 1.075569, -14.691556, 22.333336, 55.660606, -0.032393, -0.084194, -2.153239

149391534.384907, -0.071715, 0.296919, 0.135314, 0.074444, 0.077582, 1.075569, -14.618227, 22.366131, 55.650234, -0.031104, -0.081107, -2.156171

149391534.385970, -0.031092, 0.292032, 0.142339, 0.059555, 0.139647, 1.075569, -14.764928, 22.331142, 55.618610, -0.028288, -0.077956, -2.160590

149391534.386983, 0.002505, 0.266987, 0.145698, 0.059555, 0.139647, 1.075569, -14.882289, 22.303152, 55.593311, -0.025182, -0.075255, -2.165012

149391534.388008, -0.009712, 0.243163, 0.147226, 0.074444, 0.108614, 0.982041, -14.976177, 22.280760, 55.573074, -0.022703, -0.073149, -2.169227

149391534.389033, -0.011850, 0.219950, 0.136230, 0.074444, 0.108614, 0.982041, -15.051288, 22.262846, 55.556885, -0.020289, -0.071316, -2.173502

149391534.390095, 0.022969, 0.198264, 0.120042, 0.074444, 0.139647, 0.982041, -15.193521, 22.289331, 55.543934, -0.016954, -0.069832, -2.179008

149391534.391094, 0.049847, 0.186352, 0.123096, 0.074444, 0.139647, 0.982041, -15.307309, 22.310518, 55.533573, -0.013435, -0.068605, -2.184476

149391534.392163, 0.083140, 0.178106, 0.121875, 0.074444, 0.139647, 0.982041, -15.398339, 22.327469, 55.525284, -0.009610, -0.067345, -2.189788

149391534.393171, 0.096273, 0.142676, 0.095302, -0.000000, 0.124131, 0.841749, -15.491699, 22.402254, 55.448681, -0.005468, -0.064915, -2.193243

149391534.394184, 0.123762, 0.108467, 0.088277, -0.000000, 0.124131, 0.841749, -15.566387, 22.462082, 55.387398, -0.001131, -0.062855, -2.196681

149391534.395246, 0.083140, 0.104191, 0.070257, 0.074444, 0.155164, 0.966453, -15.626138, 22.509943, 55.338371, 0.002813, -0.062578, -2.202960

149391534.396252, 0.117348, 0.047686, 0.090721, 0.074444, 0.155164, 0.966453, -15.632865, 22.589048, 55.299149, 0.006964, -0.062897, -2.208896

149391534.397298, 0.168966, -0.056466, 0.051931, 0.104221, 0.170680, 0.950865, -15.638247, 22.652334, 55.267773, 0.011845, -0.065036, -2.216484

149391534.398322, 0.141172, -0.042722, 0.043379, 0.104221, 0.170680, 0.950865, -15.642553, 22.702963, 55.242672, 0.016335, -0.066952, -2.223990

149391534.399334, 0.058399, 0.014699, 0.021082, 0.104221, 0.124131, 0.904101, -15.687071, 22.804689, 55.175941, 0.019132, -0.068109, -2.230092

149391534.400394, 0.027270, 0.027247, -0.009561, 0.104221, 0.124131, 0.904101, -15.722685, 22.886070, 55.122559, 0.021605, -0.069083, -2.236340

149391534.401392, -0.023537, 0.050295, -0.035672, 0.104221, 0.139647, 0.919689, -15.751176, 22.951176, 55.079853, 0.023815, -0.069837, -2.243145

149391534.402464, -0.078058, 0.097674, -0.052861, 0.104221, 0.139647, 0.919689, -15.773969, 23.003260, 55.045689, 0.025411, -0.070022, -2.249981

149391534.403472, -0.094856, 0.120887, -0.075463, 0.059555, 0.139647, 0.950865, -15.792203, 23.024519, 54.948383, 0.026938, -0.068930, -2.255468

149391534.404530, -0.096149, 0.114455, -0.083742, 0.059555, 0.139647, 0.950865, -15.806790, 23.041527, 54.870541, 0.028378, -0.067851, -2.260952

149391534.405547, -0.068111, 0.098590, -0.092444, 0.029778, 0.124131, 0.982041, -15.818460, 23.055132, 54.808266, 0.029756, -0.066223, -2.264703

149391534.406554, -0.016744, 0.057644, -0.093189, 0.029778, 0.124131, 0.982041, -15.889405, 23.066017, 54.758446, 0.031617, -0.065036, -2.268413

149391534.407610, 0.020087, 0.019654, -0.086742, 0.014889, 0.124131, 0.966453, -15.946161, 23.074724, 54.718590, 0.033862, -0.063918, -2.271661

149391534.408620, 0.037305, -0.014248, -0.079234, 0.014889, 0.124131, 0.966453, -15.991566, 23.081690, 54.686703, 0.036214, -0.063164, -2.274759

149391534.409662, 0.046387, -0.043849, -0.078463, 0.029778, 0.139647, 0.997629, -16.089499, 23.046446, 54.707844, 0.038847, -0.063069, -2.278775

149391534.410681, 0.042420, -0.055783, -0.075017, 0.029778, 0.139647, 0.997629, -16.167845, 23.018251, 54.724754, 0.041374, -0.063081, -2.282726

149391534.411729, 0.025316, -0.045703, -0.074712, 0.029778, 0.124131, 0.950865, -16.230522, 22.995695, 54.738285, 0.043496, -0.062999, -2.286364

149391534.412772, -0.011695, -0.022316, -0.081212, 0.029778, 0.124131, 0.950865, -16.219055, 23.181732, 54.795757, 0.045196, -0.062664, -2.289866

149391534.413789, -0.044040, 0.008054, -0.078905, 0.029778, 0.139647, 0.935277, -16.209881, 23.330563, 54.841736, 0.046912, -0.062086, -2.293846

149391534.414823, -0.038628, 0.025526, -0.080233, 0.029778, 0.139647, 0.935277, -16.202541, 23.449627, 54.878517, 0.048639, -0.061328, -2.297687

149391534.415836, -0.036918, 0.044124, -0.088112, 0.044666, 0.124131, 0.950865, -16.196671, 23.544878, 54.907944, 0.049965, -0.060658, -2.301210

149391534.416889, -0.047802, 0.048577, -0.091041, 0.044666, 0.124131, 0.950865, -16.294655, 23.437405, 54.884834, 0.051140, -0.059935, -2.304836

149391534.417911, -0.058755, 0.059216, -0.092713, 0.014889, 0.155164, 0.966453, -16.373043, 23.351427, 54.866348, 0.052826, -0.058553, -2.308634

149391534.418924, -0.071572, 0.089663, -0.096442, 0.014889, 0.155164, 0.966453, -16.435753, 23.282644, 54.851559, 0.054354, -0.056898, -2.312446

149391534.419987, -0.100264, 0.110799, -0.093216, 0.014889, 0.155164, 0.966453, -16.506456, 23.227619, 54.839725, 0.055512, -0.055009, -2.316253

149391534.421000, -0.125960, 0.115941, -0.082283, 0.044666, 0.170680, 0.950865, -16.563021, 23.183598, 54.830261, 0.056752, -0.053912, -2.321534

149391534.422018, -0.120319, 0.103932, -0.072478, 0.044666, 0.170680, 0.950865, -16.608271, 23.148380, 54.822689, 0.058009, -0.052948, -2.326663

149391534.423037, -0.080918, 0.077665, -0.060260, 0.014889, 0.139647, 0.982041, -16.685545, 23.140615, 54.816631, 0.058932, -0.051464, -2.329278

149391534.424088, -0.044829, 0.041944, -0.051816, 0.014889, 0.139647, 0.982041, -16.747364, 23.134403, 54.811787, 0.060178, -0.050355, -2.331828

149391534.425115, -0.042988, 0.031493, -0.046539, 0.029778, 0.139647, 0.950865, -16.796820, 23.129433, 54.807911, 0.061504, -0.049735, -2.334952

149391534.426135, -0.052548, 0.027840, -0.041074, 0.029778, 0.139647, 0.950865, -16.836384, 23.125458, 54.804810, 0.062706, -0.049166, -2.337980

149391534.427200, -0.072073, 0.021274, -0.042601, 0.029778, 0.170680, 0.950865, -16.868034, 23.020237, 54.825653, 0.064301, -0.048773, -2.342345

149391534.428206, -0.105838, 0.028002, -0.037219, 0.029778, 0.170680, 0.950865, -16.893356, 22.936060, 54.842327, 0.065568, -0.048334, -2.346616

149391534.429263, -0.123859, 0.035027, -0.036609, 0.014889, 0.124131, 0.982041, -16.913612, 22.868719, 54.855667, 0.065529, -0.047323, -2.348351

149391534.430275, -0.077597, 0.014555, -0.031353, 0.014889, 0.124131, 0.982041, -16.991426, 22.753620, 54.912987, 0.066000, -0.046556, -2.350118

149391534.431288, -0.074468, 0.011857, -0.029198, 0.014889, 0.139647, 0.966453, -17.053679, 22.661541, 54.958843, 0.066857, -0.045878, -2.352607

149391534.432351, -0.072601, -0.004240, -0.023201, 0.014889, 0.139647, 0.966453, -17.103479, 22.587879, 54.995529, 0.067677, -0.045378, -2.355087

149391534.433363, -0.066798, -0.010959, -0.000294, 0.014889, 0.201713, 0.935277, -17.184393, 22.569765, 55.048199, 0.069973, -0.045268, -2.360383

149391534.434407, -0.063897, -0.019699, 0.007487, 0.014889, 0.201713, 0.935277, -17.249125, 22.555275, 55.090336, 0.072228, -0.045249, -2.365550

149391534.435426, -0.067867, -0.033443, 0.011763, 0.044666, 0.124131, 0.950865, -17.300909, 22.543682, 55.124046, 0.072694, -0.045687, -2.367949

149391534.436441, -0.057170, -0.049483, 0.013907, 0.044666, 0.124131, 0.950865, -17.342337, 22.554815, 55.104366, 0.073262, -0.046275, -2.370301

149391534.437502, -0.056863, -0.058907, 0.010923, 0.014889, 0.124131, 0.966453, -17.375479, 22.563723, 55.088623, 0.073779, -0.046313, -2.371684

149391534.438514, -0.036231, -0.086670, 0.006507, 0.014889, 0.124131, 0.966453, -17.401993, 22.570848, 55.076027, 0.074521, -0.046593, -2.373114

149391534.439527, -0.014545, -0.101636, -0.005099, 0.059555, 0.124131, 0.997629, -17.423204, 22.576550, 55.065948, 0.075353, -0.047906, -2.375725

149391534.440589, 0.002505, -0.076772, -0.026221, 0.059555, 0.124131, 0.997629, -17.399101, 22.479069, 55.127861, 0.076349, -0.048967, -2.378546

149391534.441602, -0.031634, -0.030604, -0.034639, 0.029778, 0.124131, 0.982041, -17.379818, 22.401085, 55.177391, 0.077057, -0.048908, -2.380673

149391534.442665, -0.048908, -0.002452, -0.031219, 0.029778, 0.124131, 0.982041, -17.364391, 22.338697, 55.217014, 0.077553, -0.048574, -2.382753

149391534.443677, -0.060209, 0.009460, -0.033051, -0.000000, 0.155164, 0.935277, -17.372587, 22.390829, 55.272038, 0.078763, -0.047583, -2.385413

149391534.444690, -0.058044, 0.004178, -0.023983, -0.000000, 0.155164, 0.935277, -17.379143, 22.432533, 55.316055, 0.079962, -0.046667, -2.387910

149391534.445734, -0.058350, 0.002345, -0.027343, 0.014889, 0.139647, 0.982041, -17.384388, 22.465897, 55.351269, 0.080630, -0.046039, -2.389888

149391534.446742, -0.009281, -0.035080, -0.007930, 0.014889, 0.139647, 0.982041, -17.429657, 22.410955, 55.286144, 0.081782, -0.045808, -2.391709

149391534.447803, 0.014237, -0.078294, -0.015538, 0.014889, 0.139647, 0.997629, -17.465872, 22.367002, 55.234043, 0.083111, -0.046031, -2.393565

149391534.448815, 0.001977, -0.082028, -0.011622, 0.029778, 0.124131, 0.997629, -17.494843, 22.331841, 55.192364, 0.083965, -0.046534, -2.395225

149391534.449878, 0.007018, -0.082992, 0.000283, 0.029778, 0.124131, 0.997629, -17.518021, 22.303711, 55.228992, 0.084851, -0.047085, -2.396771

149391534.450891, 0.036771, -0.082142, 0.006855, 0.029778, 0.124131, 0.997629, -17.495489, 22.281206, 55.258293, 0.086008, -0.047582, -2.398224

149391534.451916, 0.041379, -0.071144, 0.013588, 0.029778, 0.124131, 0.997629, -17.477465, 22.263203, 55.281734, 0.087189, -0.047972, -2.399576

149391534.452929, 0.036321, -0.056191, 0.013302, 0.029778, 0.124131, 0.966453, -17.463045, 22.248800, 55.300488, 0.088370, -0.048222, -2.401070

149391534.453991, 0.033763, -0.047533, 0.012723, 0.029778, 0.124131, 0.966453, -17.472046, 22.176054, 55.315491, 0.089519, -0.048404, -2.402582

149391534.455004, 0.016009, -0.035768, 0.013651, 0.014889, 0.108614, 0.982041, -17.479246, 22.117857, 55.327492, 0.090094, -0.048108, -2.402981

149391534.456020, 0.002516, -0.026942, 0.012168, 0.014889, 0.108614, 0.982041, -17.485006, 22.071299, 55.337093, 0.090524, -0.047731, -2.403412

149391534.457089, -0.008600, -0.014415, 0.014005, 0.029778, 0.139647, 0.966453, -17.489614, 22.034052, 55.321449, 0.091506, -0.047608, -2.405545

149391534.458119, -0.017987, -0.009925, 0.025969, 0.029778, 0.139647, 0.966453, -17.493301, 22.004255, 55.308937, 0.092370, -0.047447, -2.407537

149391534.459129, -0.020599, -0.010015, 0.030206, 0.014889, 0.124131, 0.982041, -17.496250, 21.980417, 55.298927, 0.092837, -0.046943, -2.408324

149391534.460139, -0.018969, -0.014588, 0.036746, 0.014889, 0.124131, 0.982041, -17.457537, 22.063387, 55.290916, 0.093307, -0.046499, -2.408960

149391534.461205, -0.012291, -0.019364, 0.038963, 0.014889, 0.124131, 0.982041, -17.426567, 22.129763, 55.284508, 0.093823, -0.046124, -2.409485

149391534.462229, 0.002021, -0.024339, 0.041731, 0.014889, 0.124131, 0.982041, -17.401791, 22.182863, 55.279381, 0.094477, -0.045798, -2.409942

149391534.463238, 0.007062, -0.024723, 0.038460, 0.029778, 0.139647, 0.950865, -17.381969, 22.225344, 55.275280, 0.095572, -0.045832, -2.411639

149391534.464305, 0.007810, -0.016728, 0.031072, 0.029778, 0.139647, 0.950865, -17.407185, 22.136881, 55.341972, 0.096659, -0.045792, -2.413431

149391534.465318, 0.003460, -0.004116, 0.025634, 0.029778, 0.108614, 0.950865, -17.427357, 22.066111, 55.395325, 0.097030, -0.045571, -2.414082

149391534.466339, -0.015151, 0.021684, 0.025991, 0.029778, 0.108614, 0.950865, -17.443495, 22.009493, 55.438007, 0.097207, -0.045099, -2.414737

149391534.467349, -0.039052, 0.047241, 0.028733, 0.014889, 0.139647, 0.950865, -17.394796, 22.066240, 55.355534, 0.097801, -0.044108, -2.416040

149391534.468420, -0.064542, 0.081828, 0.023643, 0.014889, 0.139647, 0.950865, -17.355837, 22.111637, 55.289555, 0.098090, -0.042742, -2.417256

149391534.469431, -0.079628, 0.101035, 0.014475, 0.014889, 0.124131, 0.966453, -17.324671, 22.147955, 55.236771, 0.097895, -0.041223, -2.417771

149391534.470493, -0.077952, 0.103692, -0.005863, 0.014889, 0.124131, 0.966453, -17.361345, 22.074968, 55.311165, 0.097688, -0.039636, -2.418546

149391534.471481, -0.060164, 0.088054, -0.036238, 0.014889, 0.124131, 0.966453, -17.390686, 22.016581, 55.370678, 0.097727, -0.038279, -2.419675

149391534.472528, -0.058599, 0.077230, -0.065675, 0.014889, 0.124131, 0.966453, -17.414158, 21.969870, 55.418289, 0.097758, -0.036978, -2.421155

149391534.473581, -0.048214, 0.079674, -0.093469, -0.015630, 0.062065, 0.950865, -17.474009, 21.912092, 55.386406, 0.096582, -0.035035, -2.419733

149391534.474594, -0.059757, 0.090854, -0.104956, -0.015630, 0.062065, 0.950865, -17.521889, 21.865871, 55.360901, 0.095339, -0.033044, -2.418465

149391534.475601, -0.080625, 0.102695, -0.106036, -0.015630, 0.062065, 0.966453, -17.560194, 21.828894, 55.340496, 0.093899, -0.030985, -2.417238

149391534.476631, -0.084901, 0.104222, -0.107563, 0.014889, 0.108614, 0.966453, -17.590837, 21.799313, 55.324173, 0.093435, -0.029527, -2.418756

149391534.477694, -0.082217, 0.078407, -0.103504, 0.014889, 0.108614, 0.966453, -17.718035, 21.796055, 55.311115, 0.092981, -0.028334, -2.420327

149391534.478691, -0.068472, 0.047864, -0.104115, 0.029778, 0.108614, 0.919689, -17.819792, 21.793449, 55.300667, 0.092828, -0.027867, -2.422584

149391534.479758, -0.047895, 0.004996, -0.093252, 0.029778, 0.108614, 0.919689, -17.901197, 21.791365, 55.292309, 0.092846, -0.027826, -2.424833

149391534.480774, -0.040607, -0.041156, -0.079927, 0.029778, 0.108614, 0.966453, -17.966322, 21.728472, 55.192326, 0.092845, -0.028225, -2.426715

149391534.481822, -0.019719, -0.084243, -0.068975, 0.029778, 0.108614, 0.966453, -18.018421, 21.678158, 55.112339, 0.093045, -0.029079, -2.428566

149391534.482846, -0.011231, -0.104895, -0.052573, 0.014889, 0.108614, 0.982041, -18.060101, 21.637907, 55.048351, 0.093297, -0.029803, -2.429753

149391534.483858, 0.008440, -0.115244, -0.042496, 0.014889, 0.108614, 0.982041, -18.072908, 21.524073, 55.043808, 0.093739, -0.030611, -2.430896

149391534.484920, 0.021718, -0.108632, -0.032033, 0.044666, 0.093098, 0.997629, -18.083155, 21.433006, 55.040176, 0.093959, -0.031984, -2.432202

149391534.485933, 0.029633, -0.098870, -0.025977, 0.044666, 0.093098, 0.997629, -18.091352, 21.360153, 55.037270, 0.094241, -0.033188, -2.433440

149391534.486953, 0.024524, -0.080044, -0.018553, 0.044666, 0.124131, 0.997629, -18.097910, 21.301870, 55.034943, 0.095076, -0.034220, -2.435705

149391534.487970, 0.019223, -0.057130, -0.013378, 0.044666, 0.124131, 0.997629, -18.103155, 21.255243, 55.056408, 0.095838, -0.035005, -2.437886

149391534.489033, 0.021211, -0.044864, -0.008911, 0.029778, 0.108614, 0.982041, -18.107351, 21.217943, 55.073578, 0.096353, -0.035372, -2.439118

149391534.490042, 0.026146, -0.050498, -0.007826, 0.029778, 0.108614, 0.982041, -18.110708, 21.188103, 55.087315, 0.096895, -0.035763, -2.440335

149391534.491096, 0.033370, -0.059900, -0.011847, 0.029778, 0.108614, 0.997629, -18.092857, 21.266272, 55.098305, 0.097480, -0.036250, -2.441451

149391534.492097, 0.033265, -0.054752, -0.009505, 0.029778, 0.108614, 0.997629, -18.078577, 21.328806, 55.107098, 0.098034, -0.036649, -2.442464

149391534.493160, 0.029276, -0.038948, -0.006016, 0.014889, 0.108614, 0.997629, -18.067152, 21.378834, 55.114132, 0.098555, -0.036612, -2.442954

149391534.494184, 0.025969, -0.030354, -0.002899, 0.014889, 0.108614, 0.997629, -18.037476, 21.357632, 55.166405, 0.099020, -0.036479, -2.443394

149391534.495196, 0.028711, -0.035695, -0.001044, 0.014889, 0.124131, 0.966453, -18.013735, 21.340670, 55.208225, 0.099893, -0.036422, -2.444562

149391534.496253, 0.032592, -0.051090, 0.005257, 0.014889, 0.124131, 0.966453, -17.994743, 21.327099, 55.241680, 0.100799, -0.036546, -2.445663

149391534.497261, 0.053434, -0.067356, 0.008734, 0.044666, 0.108614, 0.982041, -18.020622, 21.397877, 55.291767, 0.101509, -0.037395, -2.446850

149391534.498272, 0.081611, -0.078197, 0.011839, 0.044666, 0.108614, 0.982041, -18.041327, 21.454498, 55.331837, 0.102484, -0.038337, -2.447973

149391534.499335, 0.088265, -0.082830, 0.010394, 0.014889, 0.124131, 0.966453, -18.057890, 21.499796, 55.363895, 0.103919, -0.038756, -2.448915

149391534.500345, 0.080726, -0.090654, 0.013763, 0.014889, 0.124131, 0.966453, -18.071140, 21.536034, 55.389542, 0.105204, -0.039204, -2.449800

149391534.501410, 0.059890, -0.092035, 0.022145, 0.014889, 0.124131, 0.966453, -17.958521, 21.544615, 55.410057, 0.106285, -0.039714, -2.450520

149391534.502412, 0.059227, -0.082323, 0.021679, 0.014889, 0.124131, 0.966453, -17.868425, 21.551481, 55.426472, 0.107301, -0.040060, -2.451179

149391534.503425, 0.052897, -0.068032, 0.019428, 0.014889, 0.124131, 0.966453, -17.796350, 21.556974, 55.439602, 0.108239, -0.040264, -2.451792

149391534.504481, 0.040123, -0.063610, 0.019318, 0.014889, 0.124131, 0.966453, -17.779762, 21.500143, 55.426781, 0.109049, -0.040448, -2.452411

149391534.505492, 0.047949, -0.070942, 0.016818, 0.014889, 0.124131, 0.966453, -17.766493, 21.454678, 55.416527, 0.109903, -0.040668, -2.453080

149391534.506548, 0.058302, -0.082305, 0.013474, 0.014889, 0.124131, 0.997629, -17.755877, 21.418306, 55.408321, 0.110791, -0.041016, -2.453628

149391534.507560, 0.059765, -0.086852, 0.014387, 0.014889, 0.124131, 0.997629, -17.767920, 21.430025, 55.425083, 0.111649, -0.041368, -2.454164

149391534.508613, 0.068623, -0.089600, 0.010416, -0.000000, 0.093098, 0.950865, -17.777554, 21.439400, 55.438492, 0.112058, -0.041478, -2.453286

149391534.509623, 0.067477, -0.087116, 0.015280, -0.000000, 0.093098, 0.950865, -17.785261, 21.446899, 55.449219, 0.112417, -0.041529, -2.452376

149391534.510682, 0.063963, -0.085581, 0.021835, 0.014889, 0.108614, 0.966453, -17.709282, 21.575350, 55.481121, 0.113066, -0.041912, -2.452297

149391534.511692, 0.062019, -0.081387, 0.025263, 0.014889, 0.108614, 0.966453, -17.648499, 21.678110, 55.506645, 0.113650, -0.042209, -2.452092

149391534.512711, 0.065198, -0.078179, 0.022040, 0.014889, 0.124131, 0.966453, -17.599873, 21.760317, 55.527065, 0.114584, -0.042474, -2.452444

149391534.513754, 0.056052, -0.074739, 0.028453, 0.014889, 0.124131, 0.966453, -17.560972, 21.826082, 55.543400, 0.115417, -0.042726, -2.452655

149391534.514762, 0.042612, -0.066588, 0.026359, 0.029778, 0.093098, 0.950865, -17.529852, 21.837879, 55.533146, 0.115472, -0.043180, -2.452213

149391534.515822, 0.030353, -0.053824, 0.024608, 0.029778, 0.093098, 0.950865, -17.504955, 21.847317, 55.524940, 0.115420, -0.043527, -2.451755

149391534.516836, 0.021940, -0.033255, 0.021100, 0.029778, 0.139647, 0.950865, -17.485037, 21.854866, 55.518375, 0.116248, -0.043651, -2.453127

149391534.517891, 0.007126, -0.014615, 0.026038, 0.029778, 0.139647, 0.950865, -17.469103, 21.840498, 55.489799, 0.116912, -0.043601, -2.454391

149391534.518899, -0.010067, -0.009224, 0.027582, -0.000000, 0.108614, 0.966453, -17.456356, 21.829004, 55.466942, 0.116684, -0.042853, -2.453351

149391534.519959, 0.006590, -0.019794, 0.027600, -0.000000, 0.108614, 0.966453, -17.446157, 21.819809, 55.448654, 0.116630, -0.042236, -2.452331

149391534.520962, 0.038445, -0.040906, 0.026421, 0.029778, 0.124131, 0.966453, -17.335318, 21.873676, 55.480671, 0.117226, -0.042435, -2.452831

149391534.522016, 0.062452, -0.061274, 0.015399, 0.029778, 0.124131, 0.966453, -17.246645, 21.916771, 55.506283, 0.118081, -0.042848, -2.453379

149391534.523024, 0.072799, -0.060283, 0.010291, 0.044666, 0.124131, 0.966453, -17.175707, 21.951246, 55.526775, 0.118991, -0.043515, -2.454344

149391534.524071, 0.087113, -0.047353, 0.009476, 0.044666, 0.124131, 0.966453, -17.118958, 21.978827, 55.543167, 0.120057, -0.044058, -2.455238

149391534.525070, 0.053585, -0.038283, 0.008380, 0.014889, 0.093098, 0.950865, -17.094093, 21.919258, 55.532959, 0.120116, -0.043883, -2.454134

149391534.526138, 0.025846, -0.038374, 0.002821, 0.014889, 0.093098, 0.950865, -17.074203, 21.871603, 55.524792, 0.119922, -0.043731, -2.453124

149391534.527160, 0.032179, -0.031287, -0.003517, 0.014889, 0.108614, 0.982041, -17.058290, 21.833479, 55.518257, 0.120044, -0.043467, -2.452641

149391534.528178, 0.021634, -0.007605, -0.004041, 0.014889, 0.108614, 0.982041, -17.004488, 21.905022, 55.489708, 0.120056, -0.042973, -2.452066

149391534.529188, -0.004835, 0.006010, -0.008142, 0.029778, 0.108614, 0.966453, -16.961445, 21.962255, 55.466866, 0.119847, -0.042657, -2.452012

149391534.530251, -0.036726, 0.003791, -0.012157, 0.029778, 0.108614, 0.966453, -16.927011, 22.008041, 55.448593, 0.119310, -0.042363, -2.451960

149391534.531264, -0.029076, -0.008548, -0.010705, 0.044666, 0.093098, 0.935277, -16.899464, 22.024263, 55.480621, 0.118625, -0.042538, -2.451924

149391534.532326, -0.030856, -0.004780, -0.017057, 0.044666, 0.093098, 0.935277, -16.877426, 22.037241, 55.506245, 0.117924, -0.042667, -2.451940

149391534.533338, 0.003282, 0.000703, -0.022080, 0.044666, 0.093098, 0.966453, -16.859797, 22.047623, 55.526745, 0.117529, -0.042704, -2.451822

149391534.534349, 0.002977, 0.006506, -0.025440, 0.014889, 0.139647, 0.966453, -16.886765, 22.055927, 55.566467, 0.118096, -0.042068, -2.452605

149391534.535401, -0.008747, 0.005771, -0.022213, 0.014889, 0.139647, 0.966453, -16.908340, 22.062571, 55.598248, 0.118530, -0.041453, -2.453359

149391534.536445, -0.010357, -0.002723, -0.016065, 0.014889, 0.108614, 0.982041, -16.925600, 22.067886, 55.623672, 0.118253, -0.040936, -2.452753

149391534.537455, -0.031069, -0.016719, -0.013633, 0.014889, 0.108614, 0.982041, -16.939407, 22.072138, 55.644012, 0.117780, -0.040570, -2.452153

149391534.538465, -0.035199, -0.020553, -0.014243, 0.029778, 0.108614, 0.997629, -16.888845, 22.014315, 55.613636, 0.117250, -0.040540, -2.451976

149391534.539524, -0.030272, -0.015336, -0.011552, 0.029778, 0.108614, 0.997629, -16.848394, 21.968058, 55.589333, 0.116763, -0.040468, -2.451781

149391534.540540, -0.024552, -0.015013, -0.007720, 0.029778, 0.108614, 0.997629, -16.816034, 21.931051, 55.569889, 0.116355, -0.040392, -2.451551

149391534.541602, -0.020746, -0.016790, -0.006362, 0.029778, 0.108614, 0.997629, -16.769609, 21.942263, 55.577660, 0.115982, -0.040345, -2.451286

149391534.542611, -0.009545, -0.020324, -0.005929, 0.014889, 0.108614, 0.982041, -16.732470, 21.951231, 55.583874, 0.115765, -0.040035, -2.450599

149391534.543627, 0.007998, -0.030062, -0.005804, 0.014889, 0.108614, 0.982041, -16.702759, 21.958406, 55.588848, 0.115726, -0.039828, -2.449915

149391534.544682, 0.016550, -0.038919, -0.008553, 0.059555, 0.124131, 0.982041, -16.720062, 21.964146, 55.592827, 0.116092, -0.040628, -2.451206

149391534.545690, 0.016800, -0.032718, -0.010765, 0.059555, 0.124131, 0.982041, -16.733904, 21.968739, 55.596008, 0.116446, -0.041332, -2.452485

149391534.546753, 0.028107, -0.021564, -0.012930, 0.059555, 0.139647, 0.950865, -16.744978, 21.972412, 55.598553, 0.117312, -0.041977, -2.454579

149391534.547752, 0.005688, -0.001376, -0.015648, 0.059555, 0.139647, 0.950865, -16.794910, 21.934534, 55.600590, 0.117925, -0.042398, -2.456674

149391534.548816, -0.017830, 0.015423, -0.013510, 0.044666, 0.124131, 0.997629, -16.834856, 21.904232, 55.602219, 0.117861, -0.042263, -2.457407

149391534.549841, -0.013866, 0.024068, -0.014422, 0.044666, 0.124131, 0.997629, -16.866814, 21.879992, 55.603523, 0.117844, -0.042051, -2.458151

149391534.550853, -0.002511, 0.018778, -0.013520, 0.029778, 0.124131, 0.997629, -16.892380, 21.860598, 55.604565, 0.117944, -0.041602, -2.458471

149391534.551901, 0.003521, 0.011505, -0.014431, 0.029778, 0.124131, 0.997629, -16.892296, 21.845083, 55.535427, 0.118104, -0.041228, -2.458809

149391534.552916, 0.008231, 0.005283, -0.013530, 0.014889, 0.124131, 0.966453, -16.892229, 21.832672, 55.480118, 0.118383, -0.040641, -2.458850

149391534.553929, 0.023307, 0.005172, -0.016235, 0.014889, 0.124131, 0.966453, -16.892176, 21.822742, 55.435871, 0.118806, -0.040063, -2.458919

149391534.554991, 0.009361, 0.007754, -0.019182, 0.044666, 0.124131, 0.982041, -16.851059, 21.876024, 55.493771, 0.119048, -0.040062, -2.459783

149391534.556004, -0.008477, 0.015365, -0.022067, 0.044666, 0.124131, 0.982041, -16.818167, 21.918650, 55.540089, 0.119104, -0.039987, -2.460601

149391534.557017, -0.031920, 0.027599, -0.020108, 0.014889, 0.124131, 0.966453, -16.791853, 21.952749, 55.577145, 0.118964, -0.039196, -2.460517

149391534.558080, -0.035135, 0.033596, -0.019684, 0.014889, 0.124131, 0.966453, -16.750265, 21.898396, 55.583462, 0.118777, -0.038345, -2.460446

149391534.559094, -0.035591, 0.032889, -0.015682, 0.014889, 0.124131, 0.982041, -16.716995, 21.854914, 55.588516, 0.118563, -0.037535, -2.460253

149391534.560141, -0.019593, 0.026516, -0.012960, 0.014889, 0.124131, 0.982041, -16.690378, 21.820127, 55.592560, 0.118506, -0.036798, -2.460058

149391534.561163, -0.015622, 0.025294, -0.012654, -0.046891, 0.108614, 0.966453, -16.669085, 21.792299, 55.595795, 0.118091, -0.034845, -2.456995

149391534.562166, -0.017087, 0.017286, -0.005511, -0.000000, 0.108614, 0.966453, -16.693123, 21.667995, 55.598385, 0.117781, -0.033977, -2.455865

149391534.563217, -0.026295, 0.007952, -0.003302, -0.000000, 0.108614, 0.966453, -16.712353, 21.568552, 55.600456, 0.117375, -0.033215, -2.454825

149391534.564230, -0.008580, 0.003065, 0.000058, 0.044666, 0.124131, 0.966453, -16.727737, 21.488998, 55.602112, 0.117491, -0.033442, -2.455878

149391534.565293, 0.022697, 0.009280, 0.000356, 0.044666, 0.124131, 0.966453, -16.678436, 21.649845, 55.626762, 0.117926, -0.033598, -2.456771

149391534.566306, 0.026973, 0.005004, 0.000050, 0.014889, 0.108614, 0.919689, -16.638994, 21.778522, 55.646484, 0.118182, -0.033199, -2.456259

149391534.567368, 0.044046, -0.011248, -0.002941, 0.014889, 0.108614, 0.919689, -16.607441, 21.881464, 55.662262, 0.118624, -0.032970, -2.455724

149391534.568380, 0.039464, -0.021632, -0.002941, 0.029778, 0.139647, 0.966453, -16.643808, 21.841368, 55.628235, 0.119516, -0.033141, -2.456728

149391534.569406, 0.023684, -0.017888, -0.002580, 0.029778, 0.139647, 0.966453, -16.672901, 21.809292, 55.601013, 0.120237, -0.033274, -2.457739

149391534.570453, 0.005843, -0.000767, -0.003722, 0.029778, 0.108614, 0.982041, -16.696177, 21.783630, 55.579235, 0.120096, -0.033216, -2.457441

149391534.571470, -0.000559, 0.021076, -0.004241, 0.029778, 0.108614, 0.982041, -16.694260, 21.844734, 55.561813, 0.119892, -0.032943, -2.457085

149391534.572474, 0.017094, 0.031397, -0.002956, 0.029778, 0.139647, 0.982041, -16.692726, 21.893618, 55.547874, 0.120488, -0.032582, -2.457874

149391534.573518, 0.024807, 0.028942, -0.012163, 0.029778, 0.139647, 0.982041, -16.691500, 21.932724, 55.536724, 0.121160, -0.032230, -2.458714

149391534.574576, 0.013520, 0.023249, -0.015794, 0.029778, 0.108614, 0.982041, -16.690519, 21.964008, 55.527805, 0.121084, -0.031931, -2.458370

149391534.575594, 0.012339, 0.010800, -0.011574, 0.029778, 0.108614, 0.982041, -16.710270, 22.029852, 55.520668, 0.120992, -0.031777, -2.457971

149391534.576604, 0.024039, -0.003780, -0.008341, 0.059555, 0.093098, 0.966453, -16.726070, 22.082527, 55.514957, 0.120735, -0.032395, -2.457949

149391534.577669, 0.017254, -0.011175, -0.007866, 0.059555, 0.093098, 0.966453, -16.738710, 22.124668, 55.510391, 0.120427, -0.033080, -2.457917

149391534.578682, 0.012406, -0.002867, -0.002916, 0.044666, 0.124131, 0.997629, -16.707750, 22.137972, 55.530060, 0.120616, -0.033332, -2.458316

149391534.579690, 0.004371, 0.003173, -0.003453, 0.044666, 0.124131, 0.997629, -16.682983, 22.148615, 55.545795, 0.120722, -0.033518, -2.458687

149391534.580757, 0.010558, -0.007059, -0.003380, 0.059555, 0.108614, 0.966453, -16.663170, 22.157129, 55.558384, 0.120653, -0.034138, -2.459087

149391534.581755, 0.014820, -0.014087, -0.006897, 0.059555, 0.108614, 0.966453, -16.688391, 22.082308, 55.615105, 0.120621, -0.034806, -2.459582

149391534.582787, 0.014807, -0.008707, -0.006154, 0.059555, 0.108614, 0.950865, -16.708567, 22.022451, 55.660480, 0.120628, -0.035431, -2.460198

149391534.583854, 0.004629, -0.012112, -0.009911, 0.059555, 0.108614, 0.950865, -16.724709, 21.974566, 55.696781, 0.120535, -0.036076, -2.460889

149391534.584870, -0.004140, -0.004083, -0.011497, 0.044666, 0.108614, 0.919689, -16.696548, 21.915850, 55.679173, 0.120437, -0.036345, -2.461340

149391534.585883, -0.024983, 0.007963, -0.013946, 0.044666, 0.108614, 0.919689, -16.674021, 21.868877, 55.665085, 0.120134, -0.036486, -2.461808

149391534.586947, -0.028648, 0.014072, -0.013946, 0.029778, 0.108614, 0.966453, -16.655998, 21.831299, 55.653816, 0.119674, -0.036207, -2.461551

149391534.587971, -0.026550, 0.015869, -0.011858, 0.029778, 0.108614, 0.966453, -16.641581, 21.801235, 55.644802, 0.119255, -0.035924, -2.461282

149391534.588981, -0.018516, 0.006863, -0.013103, 0.044666, 0.124131, 0.982041, -16.650583, 21.858818, 55.660915, 0.119204, -0.036026, -2.461958

149391534.589996, -0.008558, -0.016005, -0.008642, 0.044666, 0.124131, 0.982041, -16.657785, 21.904884, 55.673805, 0.119250, -0.036357, -2.462580

149391534.591058, -0.001202, -0.031216, -0.011450, 0.044666, 0.124131, 0.982041, -16.663548, 21.941736, 55.684116, 0.119371, -0.036842, -2.463223

149391534.592072, 0.026898, -0.033965, -0.015420, 0.029778, 0.155164, 0.919689, -16.688692, 21.950809, 55.645718, 0.120605, -0.037102, -2.465209

149391534.593142, 0.014670, -0.019795, -0.017488, 0.029778, 0.155164, 0.919689, -16.708809, 21.958069, 55.614998, 0.121701, -0.037222, -2.467169

149391534.594162, 0.007035, 0.004639, -0.015960, 0.059555, 0.124131, 0.997629, -16.724901, 21.963877, 55.590424, 0.121811, -0.037596, -2.468040

149391534.595179, -0.012549, 0.029060, -0.016222, 0.059555, 0.124131, 0.997629, -16.676167, 21.948114, 55.594086, 0.121723, -0.037721, -2.468853

149391534.596197, -0.031122, 0.030541, -0.014386, 0.044666, 0.108614, 0.966453, -16.637178, 21.935505, 55.597015, 0.121221, -0.037565, -2.468808

149391534.597233, -0.026579, 0.020330, -0.013186, 0.044666, 0.108614, 0.966453, -16.605989, 21.925417, 55.599361, 0.120770, -0.037511, -2.468758

149391534.598269, -0.015555, 0.013025, -0.015898, 0.044666, 0.124131, 0.966453, -16.581038, 21.917347, 55.601238, 0.120755, -0.037528, -2.469328

149391534.599284, 0.000620, 0.010658, -0.019750, 0.044666, 0.124131, 0.966453, -16.561075, 21.768034, 55.626064, 0.120906, -0.037566, -2.470014

149391534.600345, 0.010773, 0.004752, -0.014849, 0.044666, 0.108614, 0.982041, -16.545107, 21.648582, 55.645924, 0.120809, -0.037651, -2.470040

149391534.601360, 0.009350, 0.007343, -0.008257, 0.044666, 0.108614, 0.982041, -16.532331, 21.553022, 55.661812, 0.120692, -0.037720, -2.470046

149391534.602373, -0.000714, 0.013169, 0.003279, 0.029778, 0.139647, 0.997629, -16.604258, 21.558207, 55.651196, 0.121053, -0.037436, -2.470630

149391534.603397, -0.004287, 0.013490, -0.002770, 0.029778, 0.139647, 0.997629, -16.661798, 21.562353, 55.642704, 0.121374, -0.037146, -2.471288

149391534.604460, 0.006269, 0.011412, -0.005702, 0.044666, 0.139647, 0.982041, -16.707830, 21.565672, 55.635910, 0.121833, -0.037190, -2.472519

149391534.605473, 0.007034, 0.007882, -0.006479, 0.044666, 0.139647, 0.982041, -16.683046, 21.629551, 55.630474, 0.122289, -0.037271, -2.473680

149391534.606516, 0.005391, 0.011902, -0.007838, 0.029778, 0.139647, 0.997629, -16.663219, 21.680655, 55.626125, 0.122684, -0.036990, -2.474247

149391534.607527, -0.006683, 0.023612, -0.001095, 0.029778, 0.139647, 0.997629, -16.647358, 21.721537, 55.622646, 0.122947, -0.036611, -2.474684

149391534.608548, -0.002057, 0.032683, 0.006104, 0.014889, 0.124131, 0.966453, -16.634668, 21.713427, 55.596542, 0.123014, -0.035867, -2.474124

149391534.609611, -0.002612, 0.034985, 0.003584, 0.014889, 0.124131, 0.966453, -16.624517, 21.706938, 55.575657, 0.123074, -0.035097, -2.473592

149391534.610620, 0.009403, 0.021989, 0.000817, 0.014889, 0.139647, 0.982041, -16.616396, 21.701748, 55.558949, 0.123530, -0.034481, -2.473655

149391534.611636, 0.020866, 0.012855, -0.003386, 0.014889, 0.139647, 0.982041, -16.609900, 21.697596, 55.545582, 0.124094, -0.033962, -2.473767

149391534.612699, 0.018932, 0.010193, -0.007202, 0.044666, 0.124131, 0.982041, -16.645775, 21.673864, 55.511566, 0.124323, -0.034070, -2.474237

149391534.613724, 0.023616, 0.012669, -0.012432, 0.044666, 0.124131, 0.982041, -16.674475, 21.654881, 55.484352, 0.124590, -0.034149, -2.474769

149391534.614737, 0.017139, 0.013897, -0.010675, 0.044666, 0.139647, 0.982041, -16.697435, 21.639692, 55.462582, 0.125091, -0.034224, -2.475897

149391534.615793, 0.006612, 0.024369, -0.007760, 0.044666, 0.139647, 0.982041, -16.715803, 21.688766, 55.491814, 0.125479, -0.034187, -2.476943

149391534.616799, 0.001091, 0.030733, -0.002812, 0.029778, 0.124131, 0.950865, -16.730497, 21.728025, 55.515198, 0.125576, -0.033820, -2.477034

149391534.617858, 0.003460, 0.031282, 0.000835, 0.029778, 0.124131, 0.950865, -16.742252, 21.759434, 55.533905, 0.125694, -0.033444, -2.477072

149391534.618876, 0.009068, 0.029427, -0.004864, 0.029778, 0.124131, 0.966453, -16.751657, 21.764153, 55.502224, 0.125825, -0.033090, -2.477072

149391534.619887, 0.003196, 0.021931, -0.011040, 0.044666, 0.108614, 0.966453, -16.759180, 21.767927, 55.476879, 0.125583, -0.033118, -2.476995

149391534.620950, 0.003129, 0.024459, -0.011705, 0.044666, 0.108614, 0.966453, -16.765200, 21.770947, 55.456604, 0.125346, -0.033106, -2.476927

149391534.621962, 0.003661, 0.029027, -0.005179, 0.029778, 0.108614, 0.997629, -16.770014, 21.773363, 55.463707, 0.125044, -0.032752, -2.476180

149391534.622975, -0.005685, 0.038881, -0.004472, 0.029778, 0.108614, 0.997629, -16.773867, 21.775295, 55.469391, 0.124654, -0.032307, -2.475429

149391534.624038, 0.002508, 0.040754, -0.002883, 0.014889, 0.108614, 0.966453, -16.776949, 21.776842, 55.473938, 0.124416, -0.031549, -2.474353

149391534.625050, 0.021591, 0.022554, -0.002523, 0.014889, 0.108614, 0.966453, -16.779413, 21.778078, 55.477573, 0.124372, -0.031006, -2.473320

149391534.626113, 0.012764, 0.007727, -0.007254, 0.014889, 0.108614, 0.950865, -16.801922, 21.779068, 55.503807, 0.124288, -0.030612, -2.472465

149391534.627129, 0.007114, -0.001705, -0.011288, 0.014889, 0.108614, 0.950865, -16.819929, 21.779860, 55.524792, 0.124144, -0.030319, -2.471687

149391534.628134, 0.002479, -0.003463, -0.012844, 0.044666, 0.124131, 0.982041, -16.834335, 21.780493, 55.541580, 0.124201, -0.030633, -2.472295

149391534.629192, 0.003324, -0.003390, -0.011976, 0.044666, 0.124131, 0.982041, -16.845860, 21.862633, 55.461716, 0.124267, -0.030942, -2.472833

149391534.630201, -0.006314, -0.008402, -0.004248, 0.044666, 0.108614, 0.966453, -16.855080, 21.928345, 55.397827, 0.123960, -0.031319, -2.472752

149391534.631226, -0.006480, -0.013308, -0.001169, 0.044666, 0.108614, 0.966453, -16.862455, 21.980913, 55.346714, 0.123657, -0.031742, -2.472615

149391534.632280, 0.006812, -0.027679, -0.002340, 0.014889, 0.108614, 0.966453, -16.929964, 21.961744, 55.422443, 0.123486, -0.031701, -2.471643

149391534.633289, 0.017732, -0.036365, -0.004683, 0.014889, 0.108614, 0.966453, -16.983973, 21.946409, 55.483028, 0.123425, -0.031730, -2.470765

149391534.634347, 0.021545, -0.036796, -0.000398, 0.029778, 0.108614, 0.982041, -17.027178, 21.934141, 55.531494, 0.123384, -0.032079, -2.470295

149391534.635352, 0.006141, -0.024061, -0.000988, 0.029778, 0.108614, 0.982041, -17.061743, 21.924326, 55.570267, 0.123180, -0.032277, -2.469850

149391534.636414, -0.007145, -0.014585, -0.001266, 0.044666, 0.108614, 0.982041, -17.068859, 21.855249, 55.577961, 0.122847, -0.032684, -2.469892

149391534.637427, -0.026728, 0.000075, -0.003931, 0.044666, 0.108614, 0.982041, -17.074551, 21.799988, 55.584118, 0.122328, -0.032928, -2.469978

149391534.638440, -0.023475, 0.014724, -0.000260, 0.044666, 0.124131, 0.966453, -17.079105, 21.755779, 55.589043, 0.122198, -0.033043, -2.470712

149391534.639484, -0.015804, 0.021590, -0.005935, 0.044666, 0.124131, 0.966453, -17.021139, 21.822453, 55.592983, 0.122144, -0.033073, -2.471409

149391534.640543, -0.017565, 0.032498, -0.011492, 0.044666, 0.124131, 0.950865, -16.974766, 21.875792, 55.596134, 0.122113, -0.032996, -2.472179

149391534.641553, -0.015700, 0.028824, -0.009755, 0.044666, 0.124131, 0.950865, -16.937668, 21.918463, 55.598656, 0.122109, -0.032974, -2.472872

149391534.642565, -0.017462, 0.021041, -0.012838, 0.029778, 0.108614, 0.982041, -16.949062, 21.891375, 55.530701, 0.121699, -0.032698, -2.472396

149391534.643628, -0.013806, 0.007741, -0.017352, 0.029778, 0.108614, 0.982041, -16.958178, 21.869705, 55.476337, 0.121330, -0.032548, -2.472011

149391534.644634, 0.001435, -0.002588, -0.015791, 0.044666, 0.124131, 0.997629, -16.965469, 21.852369, 55.432846, 0.121396, -0.032792, -2.472554

149391534.645690, 0.015757, -0.014195, -0.013963, 0.044666, 0.124131, 0.997629, -16.971304, 21.879316, 55.468025, 0.121610, -0.033152, -2.473079

149391534.646703, 0.036953, -0.022567, -0.016659, 0.044666, 0.108614, 0.966453, -16.975971, 21.900875, 55.496166, 0.121790, -0.033610, -2.473219

149391534.647716, 0.039465, -0.023587, -0.021093, 0.044666, 0.108614, 0.966453, -16.979706, 21.918121, 55.518681, 0.121992, -0.034063, -2.473394

149391534.648777, 0.016807, -0.007243, -0.017659, 0.044666, 0.108614, 0.966453, -16.982693, 21.931919, 55.536694, 0.121973, -0.034352, -2.473515

149391534.649791, 0.005689, 0.016829, -0.009214, 0.029778, 0.108614, 0.950865, -16.923473, 21.942957, 55.551102, 0.121866, -0.034112, -2.473112

149391534.650837, -0.007886, 0.026342, -0.007525, 0.029778, 0.108614, 0.950865, -16.876097, 21.951786, 55.562630, 0.121624, -0.033776, -2.472660

149391534.651854, -0.010635, 0.023288, -0.002638, 0.029778, 0.124131, 0.997629, -16.838196, 21.958851, 55.571850, 0.121560, -0.033460, -2.472481

149391534.652867, -0.011607, 0.022797, -0.001685, 0.029778, 0.124131, 0.997629, -16.910557, 21.944094, 55.509254, 0.121489, -0.033156, -2.472338

149391534.653929, -0.020034, 0.020524, -0.002248, 0.029778, 0.108614, 0.982041, -16.968447, 21.932287, 55.459179, 0.121053, -0.032884, -2.471747

149391534.654942, -0.009745, 0.004842, -0.001303, 0.029778, 0.108614, 0.982041, -17.014757, 21.922842, 55.419121, 0.120737, -0.032782, -2.471205

149391534.655954, 0.008101, -0.019180, -0.002771, 0.029778, 0.108614, 0.966453, -17.092878, 21.915287, 55.410397, 0.120643, -0.032926, -2.470840

149391534.657015, 0.020489, -0.026550, -0.008394, 0.029778, 0.108614, 0.966453, -17.155376, 21.909243, 55.403419, 0.120685, -0.033145, -2.470587

149391534.658030, 0.027233, -0.026888, -0.007918, 0.029778, 0.124131, 0.997629, -17.205374, 21.904408, 55.397835, 0.121021, -0.033331, -2.470771

149391534.659083, 0.027557, -0.019744, -0.009246, 0.029778, 0.124131, 0.997629, -17.081081, 21.920948, 55.370045, 0.121365, -0.033447, -2.470882

149391534.660093, 0.009635, -0.008863, -0.005763, 0.044666, 0.124131, 0.966453, -16.981647, 21.934179, 55.347813, 0.121587, -0.033776, -2.471492

149391534.661103, 0.003751, -0.003594, -0.000857, 0.044666, 0.124131, 0.966453, -16.902100, 21.944765, 55.330025, 0.121744, -0.034052, -2.471988

149391534.662159, 0.002775, 0.001864, -0.002932, 0.044666, 0.124131, 0.966453, -16.838463, 21.953234, 55.315796, 0.121891, -0.034266, -2.472451

149391534.663170, -0.003563, -0.008640, 0.001913, 0.044666, 0.124131, 0.966453, -16.849161, 21.960009, 55.327736, 0.121970, -0.034585, -2.472870

149391534.664231, -0.003787, -0.020418, 0.009348, 0.044666, 0.124131, 0.966453, -16.857721, 21.965427, 55.337288, 0.122042, -0.035033, -2.473221

149391534.665243, 0.000778, -0.019690, 0.010945, 0.044666, 0.124131, 0.966453, -16.864569, 21.969763, 55.344933, 0.122158, -0.035457, -2.473552

149391534.666306, -0.001665, -0.018162, 0.014305, 0.074444, 0.186196, 0.935277, -16.890583, 21.932415, 55.374371, 0.123532, -0.036657, -2.477480

149391534.667319, -0.007909, -0.011800, 0.012210, 0.074444, 0.186196, 0.935277, -16.911394, 21.902536, 55.397923, 0.124822, -0.037755, -2.481383

149391534.668331, -0.000579, -0.010273, 0.013432, 0.044666, 0.124131, 0.950865, -16.928043, 21.878633, 55.416763, 0.124909, -0.038050, -2.481713

149391534.669381, 0.004217, -0.012449, 0.017634, 0.044666, 0.124131, 0.950865, -16.859217, 21.920736, 55.361862, 0.125043, -0.038370, -2.481926

149391534.670406, 0.005325, -0.014878, 0.015768, 0.014889, 0.108614, 0.982041, -16.804155, 21.954418, 55.317944, 0.124778, -0.038082, -2.480421

149391534.671419, 0.004017, -0.013069, 0.016333, 0.014889, 0.108614, 0.982041, -16.760107, 21.981363, 55.282806, 0.124504, -0.037781, -2.478895

149391534.672462, -0.001749, -0.011299, 0.016587, 0.044666, 0.108614, 0.966453, -16.724869, 22.002920, 55.254700, 0.124230, -0.038081, -2.478362

149391534.673471, -0.007991, -0.006576, 0.015939, 0.044666, 0.108614, 0.966453, -16.737749, 21.999758, 55.302185, 0.123901, -0.038324, -2.477857

149391534.674545, -0.013504, -0.008531, 0.017397, 0.014889, 0.108614, 0.982041, -16.748055, 21.997227, 55.340172, 0.123462, -0.037979, -2.476346

149391534.675557, -0.019200, -0.015527, 0.016134, 0.014889, 0.108614, 0.982041, -16.756298, 21.995203, 55.370564, 0.122985, -0.037702, -2.474903

149391534.676570, -0.007135, -0.025068, 0.013701, 0.014889, 0.108614, 0.982041, -16.783430, 21.993584, 55.348228, 0.122640, -0.037521, -2.473539

149391534.677632, 0.009664, -0.029344, 0.017977, 0.059555, 0.124131, 0.997629, -16.805136, 21.992289, 55.330360, 0.122751, -0.038280, -2.473974

149391534.678645, 0.010657, -0.023344, 0.011918, 0.059555, 0.124131, 0.997629, -16.822500, 21.991253, 55.316063, 0.122869, -0.038943, -2.474467

149391534.679657, 0.009236, -0.019264, 0.009275, 0.044666, 0.124131, 0.982041, -16.836391, 22.010832, 55.234653, 0.123014, -0.039267, -2.474642

149391534.680720, 0.001268, -0.011085, 0.009080, 0.044666, 0.124131, 0.982041, -16.847506, 22.026495, 55.169529, 0.123078, -0.039510, -2.474791

149391534.681733, 0.007377, -0.007419, 0.011218, 0.029778, 0.124131, 0.935277, -16.856396, 22.039026, 55.117428, 0.123325, -0.039438, -2.474752

149391534.682795, 0.005128, -0.009954, 0.009188, 0.029778, 0.124131, 0.935277, -16.781363, 22.069458, 55.215691, 0.123548, -0.039395, -2.474684

149391534.683807, 0.000535, -0.005559, 0.006901, 0.044666, 0.124131, 0.966453, -16.721336, 22.093803, 55.294300, 0.123634, -0.039586, -2.474853

149391534.684833, 0.007102, -0.008133, 0.005859, 0.044666, 0.124131, 0.966453, -16.673315, 22.113281, 55.357189, 0.123785, -0.039800, -2.475002

149391534.685858, 0.022501, -0.014540, 0.011117, 0.029778, 0.124131, 0.982041, -16.634897, 22.128862, 55.407497, 0.124044, -0.039764, -2.474539

149391534.686871, 0.021130, -0.008552, 0.007295, 0.029778, 0.124131, 0.982041, -16.727383, 22.100512, 55.401100, 0.124284, -0.039663, -2.474184

149391534.687933, 0.014406, 0.001196, 0.004750, 0.059555, 0.124131, 0.966453, -16.801371, 22.077831, 55.395981, 0.124493, -0.040085, -2.474852

149391534.688946, 0.010515, 0.006852, 0.005547, 0.059555, 0.124131, 0.966453, -16.860561, 22.059687, 55.391884, 0.124652, -0.040445, -2.475532

149391534.690010, 0.006850, 0.007462, 0.011045, 0.074444, 0.108614, 1.013217, -16.825768, 22.004354, 55.411930, 0.124357, -0.041029, -2.475714

149391534.691022, 0.008499, -0.001067, 0.009317, 0.074444, 0.108614, 1.013217, -16.797934, 21.960089, 55.427967, 0.124082, -0.041686, -2.475941

149391534.692034, 0.016135, -0.012368, 0.009012, 0.044666, 0.124131, 0.966453, -16.775665, 21.924677, 55.440800, 0.124311, -0.041902, -2.476225

149391534.693097, 0.018785, -0.017788, 0.007327, 0.044666, 0.124131, 0.966453, -16.778387, 21.998386, 55.474388, 0.124572, -0.042174, -2.476481

149391534.694108, 0.013606, -0.018012, 0.004781, 0.059555, 0.124131, 0.982041, -16.780565, 22.057354, 55.501259, 0.124724, -0.042715, -2.477043

149391534.695162, 0.007339, -0.014045, 0.001391, 0.059555, 0.124131, 0.982041, -16.782307, 22.104528, 55.522755, 0.124816, -0.043209, -2.477596

149391534.696175, 0.007783, -0.014048, -0.000731, 0.029778, 0.108614, 0.966453, -16.722092, 22.101452, 55.493305, 0.124631, -0.043100, -2.476772

149391534.697180, -0.001351, -0.006875, -0.001015, 0.029778, 0.108614, 0.966453, -16.673920, 22.098991, 55.469746, 0.124359, -0.042921, -2.475931

149391534.698241, 0.003761, -0.004039, -0.001293, 0.044666, 0.124131, 0.982041, -16.635382, 22.097023, 55.450897, 0.124426, -0.043005, -2.476031

149391534.699247, 0.019827, -0.016213, -0.002760, 0.044666, 0.124131, 0.982041, -16.604551, 22.095448, 55.435818, 0.124650, -0.043202, -2.476141

149391534.700310, 0.019709, -0.022450, 0.001484, 0.044666, 0.139647, 0.982041, -16.641497, 22.053371, 55.447079, 0.125187, -0.043478, -2.476861

149391534.701322, 0.038131, -0.025566, -0.001537, 0.044666, 0.139647, 0.982041, -16.671053, 22.019711, 55.456089, 0.125888, -0.043763, -2.477638

149391534.702335, 0.040917, -0.019645, -0.003598, 0.044666, 0.124131, 0.966453, -16.694696, 21.992781, 55.463295, 0.126334, -0.043993, -2.477939

149391534.703394, 0.028992, -0.010561, -0.002326, 0.044666, 0.124131, 0.966453, -16.693075, 22.052870, 55.445736, 0.126664, -0.044135, -2.478170

149391534.704403, 0.017618, -0.004956, 0.000713, 0.044666, 0.124131, 0.966453, -16.691778, 22.100941, 55.431690, 0.126860, -0.044218, -2.478326

149391534.705444, 0.009772, -0.000965, 0.002193, 0.044666, 0.124131, 0.982041, -16.690741, 22.139399, 55.420452, 0.126936, -0.044248, -2.478335

149391534.706450, -0.005683, 0.012212, 0.002744, 0.044666, 0.124131, 0.982041, -16.648838, 22.170164, 55.388138, 0.126855, -0.044148, -2.478280

149391534.707511, -0.018421, 0.017336, 0.001491, 0.044666, 0.124131, 0.982041, -16.615316, 22.194777, 55.362286, 0.126640, -0.043990, -2.478195

149391534.708515, -0.012053, -0.000969, 0.003552, 0.044666, 0.124131, 0.982041, -16.588499, 22.214466, 55.341606, 0.126502, -0.044026, -2.478088

149391534.709572, 0.002852, -0.018589, -0.001008, 0.044666, 0.108614, 0.982041, -16.587582, 22.168995, 55.418358, 0.126206, -0.044243, -2.477518

149391534.710710, 0.002792, -0.018497, -0.005471, 0.044666, 0.108614, 0.982041, -16.586847, 22.132618, 55.479759, 0.125920, -0.044464, -2.477038

149391534.711619, -0.004742, -0.013324, -0.003263, 0.029778, 0.124131, 0.982041, -16.586260, 22.103516, 55.528881, 0.125874, -0.044290, -2.476672

149391534.712668, -0.019293, 0.000412, -0.004091, 0.029778, 0.124131, 0.982041, -16.585791, 22.080235, 55.568176, 0.125672, -0.043996, -2.476331

149391534.713676, -0.011352, 0.008048, -0.010506, -0.000000, 0.124131, 0.935277, -16.564878, 22.082018, 55.552967, 0.125665, -0.043021, -2.475296

149391534.714699, 0.002043, 0.007579, -0.012676, -0.000000, 0.124131, 0.935277, -16.548149, 22.083445, 55.540798, 0.125792, -0.042066, -2.474292

149391534.715762, -0.009869, 0.014910, -0.014814, 0.044666, 0.124131, 0.982041, -16.534765, 22.084585, 55.531063, 0.125694, -0.041953, -2.474505

149391534.716759, -0.010857, 0.019380, -0.012409, 0.044666, 0.124131, 0.982041, -16.441914, 22.146723, 55.546597, 0.125593, -0.041812, -2.474591

149391534.717813, -0.012721, 0.018374, -0.007663, 0.044666, 0.139647, 0.966453, -16.367632, 22.196432, 55.559025, 0.125820, -0.041698, -2.475273

149391534.718850, -0.015743, 0.019482, -0.007502, 0.044666, 0.139647, 0.966453, -16.308207, 22.236200, 55.568966, 0.126015, -0.041577, -2.475882

149391534.719875, -0.020494, 0.012195, -0.009437, 0.044666, 0.124131, 0.997629, -16.404421, 22.206789, 55.553596, 0.125768, -0.041500, -2.475773

149391534.720887, -0.022156, 0.014629, -0.005351, 0.044666, 0.124131, 0.997629, -16.481392, 22.183260, 55.541302, 0.125510, -0.041407, -2.475675

149391534.721950, -0.016606, 0.013125, -0.001352, 0.014889, 0.108614, 0.982041, -16.542969, 22.164438, 55.531467, 0.125011, -0.040755, -2.474167

149391534.722963, -0.007287, 0.005673, -0.004612, 0.014889, 0.108614, 0.982041, -16.592230, 22.149380, 55.523598, 0.124625, -0.040190, -2.472769

149391534.723976, -0.000555, -0.005510, -0.006907, 0.029778, 0.124131, 0.997629, -16.611103, 22.178150, 55.493980, 0.124603, -0.040024, -2.472394

149391534.725051, 0.005138, -0.011374, -0.009453, 0.029778, 0.124131, 0.997629, -16.626202, 22.201166, 55.470284, 0.124643, -0.039923, -2.472057

149391534.726063, 0.004730, -0.013825, -0.010151, 0.044666, 0.108614, 0.982041, -16.638281, 22.219578, 55.451328, 0.124407, -0.040155, -2.471688

149391534.727082, 0.003734, -0.008451, -0.008741, 0.044666, 0.108614, 0.982041, -16.606871, 22.254717, 55.506134, 0.124164, -0.040332, -2.471274

149391534.728141, 0.014419, -0.001695, -0.007959, 0.044666, 0.139647, 0.966453, -16.581743, 22.282827, 55.549980, 0.124702, -0.040454, -2.472100

149391534.729131, 0.003053, 0.003423, -0.005100, 0.044666, 0.139647, 0.966453, -16.561640, 22.305315, 55.585056, 0.125107, -0.040526, -2.472849

149391534.730164, -0.000899, 0.009331, -0.004993, 0.044666, 0.139647, 0.966453, -16.566093, 22.221266, 55.589794, 0.125466, -0.040536, -2.473635

149391534.731226, -0.002973, -0.001928, -0.003393, 0.044666, 0.139647, 0.966453, -16.569656, 22.154026, 55.593582, 0.125795, -0.040662, -2.474452

149391534.732239, 0.004864, -0.010858, -0.007208, 0.029778, 0.124131, 0.982041, -16.572508, 22.100233, 55.596615, 0.125843, -0.040548, -2.474181

149391534.733251, 0.004463, -0.013619, -0.012738, 0.029778, 0.124131, 0.982041, -16.574789, 22.057199, 55.599041, 0.125890, -0.040457, -2.474002

149391534.734315, 0.007060, -0.011538, -0.014862, 0.029778, 0.124131, 0.982041, -16.576614, 22.022772, 55.600979, 0.125965, -0.040350, -2.473877

149391534.735339, -0.004451, -0.004119, -0.013054, -0.000000, 0.124131, 0.950865, -16.578074, 21.995230, 55.602531, 0.125981, -0.039565, -2.472919

149391534.736352, 0.000427, 0.003442, -0.013078, -0.000000, 0.124131, 0.950865, -16.579241, 21.973196, 55.603771, 0.126047, -0.038722, -2.471984

149391534.737415, -0.011791, 0.009246, -0.013383, 0.074444, 0.139647, 0.950865, -16.498030, 22.016794, 55.534794, 0.126290, -0.039398, -2.473897

149391534.738410, -0.006758, 0.007556, -0.012205, 0.074444, 0.139647, 0.950865, -16.433062, 22.051674, 55.479610, 0.126586, -0.040083, -2.475695

149391534.739479, -0.004523, 0.002314, -0.011350, 0.059555, 0.124131, 0.950865, -16.381086, 22.079576, 55.435463, 0.126602, -0.040484, -2.476408

149391534.740503, -0.006521, 0.004956, -0.006327, 0.059555, 0.124131, 0.950865, -16.462725, 22.081491, 55.423470, 0.126596, -0.040858, -2.477083

149391534.741515, -0.014756, 0.005749, 0.000086, 0.044666, 0.124131, 0.950865, -16.528034, 22.083023, 55.413876, 0.126513, -0.040916, -2.477281

149391534.742528, -0.020425, 0.006226, 0.000383, 0.044666, 0.124131, 0.950865, -16.580282, 22.084248, 55.406200, 0.126375, -0.040968, -2.477495

149391534.743590, -0.022387, 0.009384, -0.002017, 0.059555, 0.124131, 0.982041, -16.581009, 22.085228, 55.353413, 0.126125, -0.041251, -2.477942

149391534.744615, -0.030886, 0.012475, 0.006995, 0.059555, 0.124131, 0.982041, -16.581589, 22.086012, 55.311184, 0.125800, -0.041512, -2.478282

149391534.745624, -0.022462, 0.002944, 0.010137, 0.044666, 0.124131, 0.982041, -16.582054, 22.086639, 55.277401, 0.125572, -0.041567, -2.478175

149391534.746691, -0.006142, -0.009078, 0.006934, 0.044666, 0.124131, 0.982041, -16.582426, 22.087141, 55.250374, 0.125509, -0.041741, -2.478110

149391534.747703, -0.004218, -0.014269, 0.008283, 0.059555, 0.124131, 0.966453, -16.562187, 22.107950, 55.298725, 0.125504, -0.042279, -2.478543

149391534.748716, -0.006222, -0.012474, 0.002128, 0.059555, 0.124131, 0.966453, -16.545996, 22.124598, 55.337406, 0.125482, -0.042780, -2.479012

149391534.749759, -0.004084, -0.006671, 0.000296, 0.014889, 0.139647, 0.982041, -16.533043, 22.137917, 55.368351, 0.125751, -0.042289, -2.478638

149391534.750817, -0.010577, 0.003935, -0.000309, 0.014889, 0.139647, 0.982041, -16.502144, 22.148571, 55.369781, 0.125946, -0.041700, -2.478239

149391534.751841, -0.013942, 0.008636, -0.002694, 0.044666, 0.108614, 0.966453, -16.477425, 22.157095, 55.370926, 0.125528, -0.041698, -2.477678

149391534.752854, -0.004977, 0.012640, -0.004132, 0.044666, 0.108614, 0.966453, -16.457649, 22.163914, 55.371841, 0.125209, -0.041656, -2.477123

149391534.753861, 0.000215, 0.016611, -0.005049, 0.074444, 0.155164, 0.982041, -16.503439, 22.169369, 55.349251, 0.125809, -0.042178, -2.479078

149391534.754929, -0.002181, 0.015663, -0.004045, 0.074444, 0.155164, 0.982041, -16.540070, 22.173733, 55.331177, 0.126374, -0.042690, -2.480997

149391534.755942, -0.008415, 0.016529, -0.003661, 0.059555, 0.124131, 0.982041, -16.569374, 22.177223, 55.316719, 0.126275, -0.042870, -2.481314

149391534.756955, -0.009732, 0.015583, -0.004481, 0.059555, 0.124131, 0.982041, -16.572281, 22.200424, 55.328476, 0.126167, -0.043056, -2.481621

149391534.758012, -0.010724, 0.019740, -0.000500, 0.029778, 0.139647, 0.982041, -16.574608, 22.218985, 55.337883, 0.126356, -0.042591, -2.481602

149391534.759018, -0.015282, 0.025604, 0.005192, 0.029778, 0.139647, 0.982041, -16.576469, 22.233833, 55.345406, 0.126500, -0.042096, -2.481512

149391534.760079, -0.008083, 0.027158, 0.005082, 0.044666, 0.124131, 0.997629, -16.577957, 22.245712, 55.351425, 0.126359, -0.041869, -2.481167

149391534.761074, -0.006717, 0.028081, 0.006470, 0.044666, 0.124131, 0.997629, -16.599684, 22.234808, 55.332916, 0.126238, -0.041656, -2.480836

149391534.762134, -0.012556, 0.020314, 0.003344, 0.044666, 0.124131, 1.013217, -16.617065, 22.226084, 55.318108, 0.126019, -0.041493, -2.480471

149391534.763155, -0.011992, 0.015401, 0.002676, 0.059555, 0.139647, 1.013217, -16.630972, 22.219105, 55.306263, 0.126110, -0.041680, -2.481108

149391534.764168, 0.002612, 0.003117, 0.003217, 0.059555, 0.139647, 1.013217, -16.703705, 22.131889, 55.366756, 0.126345, -0.041987, -2.481842

149391534.765231, 0.005972, -0.000854, 0.000469, 0.029778, 0.139647, 0.950865, -16.761892, 22.062117, 55.415154, 0.126799, -0.041781, -2.482260

149391534.766243, 0.003454, 0.003051, 0.002552, 0.029778, 0.139647, 0.950865, -16.808441, 22.006298, 55.453869, 0.127215, -0.041542, -2.482712

149391534.767306, 0.003382, 0.007173, 0.003096, 0.044666, 0.124131, 0.950865, -16.763535, 22.084093, 55.391548, 0.127300, -0.041572, -2.482877

149391534.768319, -0.013135, 0.014497, -0.000557, 0.044666, 0.124131, 0.950865, -16.727610, 22.146328, 55.341690, 0.127219, -0.041528, -2.483005

149391534.769331, -0.014054, 0.022265, 0.002445, 0.059555, 0.124131, 0.950865, -16.698870, 22.196115, 55.301804, 0.127124, -0.041723, -2.483466

149391534.770394, -0.013758, 0.021497, 0.003888, 0.059555, 0.124131, 0.950865, -16.634806, 22.195129, 55.386517, 0.127026, -0.041913, -2.483881

149391534.771396, -0.020047, 0.017457, 0.006796, 0.044666, 0.124131, 0.982041, -16.583553, 22.194342, 55.454285, 0.126800, -0.041814, -2.483627

149391534.772456, -0.010057, 0.009913, 0.005158, 0.044666, 0.124131, 0.982041, -16.542553, 22.193710, 55.508499, 0.126672, -0.041784, -2.483386

149391534.773525, -0.007612, 0.003499, 0.008822, 0.044666, 0.108614, 0.966453, -16.509752, 22.193207, 55.551872, 0.126295, -0.041847, -2.482621

149391534.774481, -0.009444, -0.004137, 0.012486, 0.044666, 0.108614, 0.966453, -16.545120, 22.111170, 55.493275, 0.125915, -0.041985, -2.481919

149391534.775531, 0.000635, -0.017269, 0.015539, 0.059555, 0.124131, 0.982041, -16.573416, 22.045542, 55.446396, 0.125909, -0.042543, -2.482165

149391534.776545, -0.006694, -0.018794, 0.007292, 0.059555, 0.124131, 0.982041, -16.596052, 21.993038, 55.408894, 0.125833, -0.043089, -2.482533

149391534.777607, -0.009137, -0.013600, 0.002404, 0.029778, 0.124131, 0.966453, -16.614161, 21.991852, 55.448864, 0.125774, -0.042981, -2.482179

149391534.778620, -0.012190, -0.016653, -0.000955, 0.029778, 0.124131, 0.966453, -16.628647, 21.990902, 55.480839, 0.125691, -0.042895, -2.481880

149391534.779633, -0.011578, -0.024591, -0.004009, 0.029778, 0.124131, 0.982041, -16.640236, 21.990143, 55.506420, 0.125578, -0.042876, -2.481545

149391534.780695, -0.009133, -0.021535, -0.013476, 0.029778, 0.124131, 0.982041, -16.587898, 21.948719, 55.550209, 0.125491, -0.042825, -2.481317

149391534.781708, -0.003635, -0.016341, -0.021110, 0.029778, 0.108614, 0.966453, -16.546028, 21.915581, 55.585239, 0.125187, -0.042721, -2.480652

149391534.782752, 0.002168, -0.007482, -0.027216, 0.029778, 0.108614, 0.966453, -16.512531, 21.889071, 55.613266, 0.124951, -0.042526, -2.480058

149391534.783761, -0.005162, 0.005345, -0.031794, 0.044666, 0.108614, 0.935277, -16.485735, 21.867861, 55.635685, 0.124727, -0.042533, -2.480138

149391534.784783, -0.006383, 0.012980, -0.033623, 0.044666, 0.108614, 0.935277, -16.546442, 21.850893, 55.583649, 0.124495, -0.042460, -2.480266

149391534.785846, -0.016768, 0.016034, -0.040037, 0.044666, 0.124131, 0.997629, -16.595009, 21.837320, 55.542019, 0.124322, -0.042282, -2.480716

149391534.786846, -0.010047, 0.017254, -0.043392, 0.044666, 0.124131, 0.997629, -16.633862, 21.826462, 55.508717, 0.124230, -0.042103, -2.481188

149391534.787909, -0.009742, 0.017865, -0.039116, 0.014889, 0.124131, 0.950865, -16.664944, 21.776958, 55.482075, 0.124249, -0.041335, -2.481034

149391534.788921, -0.017987, 0.004731, -0.039723, 0.014889, 0.124131, 0.950865, -16.689810, 21.737356, 55.460762, 0.124192, -0.040722, -2.480926

149391534.789934, -0.006990, -0.008707, -0.040635, 0.014889, 0.124131, 0.966453, -16.709703, 21.705673, 55.443710, 0.124203, -0.040248, -2.480786

149391534.790997, -0.015541, -0.002598, -0.038187, 0.029778, 0.139647, 0.966453, -16.684546, 21.823185, 55.546688, 0.124445, -0.040035, -2.481659

149391534.792010, -0.025617, -0.006263, -0.037267, 0.029778, 0.139647, 0.966453, -16.664419, 21.917194, 55.629070, 0.124589, -0.039863, -2.482424

149391534.793072, -0.030501, -0.006568, -0.040928, -0.000000, 0.139647, 0.966453, -16.648317, 21.992401, 55.694977, 0.124654, -0.039075, -2.482203

149391534.794068, -0.032025, 0.007787, -0.045810, -0.000000, 0.139647, 0.966453, -16.635437, 21.909710, 55.654408, 0.124724, -0.038156, -2.482035

149391534.795087, -0.048208, 0.018780, -0.038476, -0.031260, 0.155164, 0.982041, -16.625132, 21.843557, 55.621952, 0.124857, -0.036513, -2.481260

149391534.796147, -0.061029, 0.019389, -0.034501, -0.031260, 0.155164, 0.982041, -16.616888, 21.790634, 55.595985, 0.124835, -0.034892, -2.480505

149391534.797154, -0.021323, -0.000158, -0.035418, -0.109411, 0.093098, 0.982041, -16.610292, 21.748297, 55.575214, 0.123531, -0.032077, -2.473721

149391534.798222, 0.029375, -0.005961, -0.090691, -0.109411, 0.093098, 0.982041, -16.707699, 21.694017, 55.558598, 0.122815, -0.029296, -2.467796

149391534.799235, 0.108483, 0.003202, -0.208283, -0.187562, 0.062065, 0.966453, -16.785624, 21.650595, 55.545303, 0.121528, -0.025069, -2.457888

149391534.800248, 0.049529, 0.001675, -0.046399, -0.187562, 0.062065, 0.966453, -16.847963, 21.615856, 55.534668, 0.119686, -0.021112, -2.446669

149391534.801310, 0.050445, 0.007478, 0.041871, -0.296974, 0.139647, 0.997629, -16.856762, 21.730923, 55.409538, 0.117877, -0.015158, -2.428573

149391534.802323, 0.064794, 0.003812, 0.041562, -0.296974, 0.139647, 0.997629, -16.863802, 21.822975, 55.309437, 0.116336, -0.009323, -2.410926

149391534.803373, 0.054103, -0.043530, 0.111811, -0.437645, 0.108614, 1.059981, -16.869432, 21.896618, 55.229355, 0.111922, -0.003025, -2.386040

149391534.804373, 0.032112, -0.155929, 0.142965, -0.437645, 0.108614, 1.059981, -16.791792, 21.955532, 55.281910, 0.107489, 0.002153, -2.361471

149391534.805436, -0.051271, -0.327888, 0.168621, -0.531426, 0.046549, 1.200272, -16.729679, 22.002663, 55.323952, 0.101031, 0.005218, -2.337213

149391534.806448, -0.009732, -0.534055, 0.172592, -0.531426, 0.046549, 1.200272, -16.679989, 22.040367, 55.357586, 0.095227, 0.006479, -2.313632

149391534.807454, 0.137181, -0.724645, 0.184199, -0.562687, 0.031033, 1.262624, -16.640238, 22.070532, 55.384495, 0.090821, 0.005885, -2.290713

149391534.808507, 0.333574, -0.838571, 0.190613, -0.562687, 0.031033, 1.262624, -16.382536, 22.115070, 55.499317, 0.088607, 0.003843, -2.267990

149391534.809511, 0.438032, -0.832462, 0.211382, -0.468906, 0.139647, 1.091156, -16.176374, 22.150702, 55.591175, 0.088887, 0.002942, -2.243512

149391534.810574, 0.298450, -0.683411, 0.259640, -0.468906, 0.139647, 1.091156, -16.011446, 22.179207, 55.664661, 0.088023, 0.003109, -2.218623

149391534.811586, -0.132210, -0.441509, 0.282548, -0.500166, 0.155164, 1.044393, -15.509849, 22.385685, 55.606831, 0.082012, 0.006798, -2.190715

149391534.812640, -0.481014, -0.185251, 0.259030, -0.500166, 0.155164, 1.044393, -15.108571, 22.550867, 55.560566, 0.072613, 0.013063, -2.163126

149391534.813649, -0.473073, 0.056041, 0.130137, -0.547057, 0.000000, 1.028805, -14.787549, 22.683012, 55.523552, 0.061472, 0.021374, -2.139759

149391534.814703, 0.042192, 0.259459, -0.414144, -0.547057, 0.000000, 1.028805, -14.551268, 22.727505, 55.517265, 0.055709, 0.032112, -2.122230

149391534.815712, 0.205598, 0.359336, -0.325874, -0.547057, -0.232248, 1.106744, -14.362243, 22.763098, 55.512238, 0.049473, 0.041712, -2.108527

149391534.816771, 0.488734, 0.340399, 0.083100, -0.547057, -0.232248, 1.106744, -14.211022, 22.791573, 55.508213, 0.046670, 0.050963, -2.091008

149391534.817787, 0.460940, 0.373386, 0.365626, -0.296974, -0.154832, 1.028805, -14.192728, 22.998026, 55.365051, 0.046504, 0.057899, -2.076192

149391534.818800, 0.537603, 0.318713, 0.514066, -0.296974, -0.154832, 1.028805, -14.178092, 23.163189, 55.250523, 0.047261, 0.064108, -2.060261

149391534.819863, 0.544628, 0.314743, 0.432821, -0.296974, -0.154832, 0.904101, -14.166384, 23.295319, 55.158897, 0.047736, 0.070826, -2.044164

149391534.820875, 0.631066, 0.414619, 0.321032, -0.046891, -0.015483, 0.919689, -14.157017, 23.401024, 55.085598, 0.052961, 0.074351, -2.040048

149391534.821881, 0.569368, 0.558783, 0.389449, -0.046891, -0.015483, 0.919689, -13.944160, 23.730486, 54.863689, 0.057510, 0.079140, -2.035027

149391534.822938, 0.377557, 0.512968, 0.375399, 0.014889, -0.015483, 0.670282, -13.773874, 23.994055, 54.686165, 0.060066, 0.082248, -2.032329

149391534.823942, 0.497897, 0.263125, 0.390060, 0.014889, -0.015483, 0.670282, -13.637646, 24.204910, 54.544144, 0.063558, 0.082565, -2.029739

149391534.824998, 0.831735, 0.032828, 0.458477, 0.148888, 0.000000, 0.561166, -13.446518, 24.516451, 54.360558, 0.070029, 0.076091, -2.032701

149391534.826014, 0.747436, 0.064288, 0.821331, 0.148888, 0.000000, 0.561166, -13.293615, 24.765684, 54.213688, 0.075484, 0.069774, -2.031992

149391534.827075, 0.612740, 0.343453, 1.287421, 0.521107, 0.201713, 0.623518, -13.171293, 24.965071, 54.096191, 0.080049, 0.056603, -2.035320

149391534.828088, 0.686044, 0.695617, 1.653940, 0.521107, 0.201713, 0.623518, -12.929681, 25.226620, 53.815601, 0.085157, 0.046725, -2.035131

149391534.829099, 0.649086, 1.086876, 2.116365, 0.729549, 0.356876, 0.561166, -12.736391, 25.435860, 53.591129, 0.089915, 0.035498, -2.032478

149391534.830157, 0.126491, 1.498905, 2.421493, 0.729549, 0.356876, 0.561166, -12.581759, 25.603252, 53.411552, 0.089487, 0.028812, -2.025191

149391534.831160, -0.645337, 1.682775, 1.911725, 0.937992, 0.512040, 0.654694, -12.519664, 25.614717, 53.221241, 0.081403, 0.022620, -2.025046

149391534.832214, -1.290716, 1.611915, 1.411121, 0.937992, 0.512040, 0.654694, -12.469987, 25.623890, 53.068993, 0.066304, 0.017059, -2.029077

149391534.833227, -0.995668, 1.306177, 1.251991, 1.220879, 0.589622, 0.748222, -12.430245, 25.631227, 52.947193, 0.054140, 0.007268, -2.034750

149391534.834277, -1.160297, 1.046865, 0.731228, 1.220879, 0.589622, 0.748222, -12.398452, 25.637096, 52.849754, 0.040146, -0.004246, -2.045290

149391534.835289, -2.306585, 0.886207, 0.277355, 0.684883, 0.155164, 1.278212, -12.639990, 25.172405, 52.981720, 0.015686, -0.005522, -2.054181

149391534.836352, -2.283678, 0.743876, 0.183588, 0.684883, 0.155164, 1.278212, -12.833220, 24.800652, 53.087292, -0.009193, -0.007893, -2.064032

149391534.837358, -1.138306, 0.594214, -0.331372, 0.535995, 0.155164, 1.153508, -12.987804, 24.503248, 53.171749, -0.020296, -0.011184, -2.078967

149391534.838416, -0.092504, 0.475095, -1.202160, 0.535995, 0.155164, 1.153508, -13.440053, 23.755121, 53.355934, -0.020783, -0.015560, -2.103254

149391534.839423, -0.040581, 0.463183, -1.041503, 0.223331, 0.031033, 1.091156, -13.801852, 23.156620, 53.503284, -0.020636, -0.015047, -2.119758

149391534.840440, 0.142679, 0.398737, -0.598014, 0.223331, 0.031033, 1.091156, -14.091291, 22.677820, 53.621162, -0.018739, -0.015039, -2.131951

149391534.841498, 0.163143, 0.330014, -0.270285, 0.208443, 0.062065, 1.059981, -14.528207, 22.274372, 53.738792, -0.016112, -0.015464, -2.141734

149391534.842503, 0.182996, 0.279007, -0.089164, 0.208443, 0.062065, 1.059981, -14.877739, 21.951612, 53.832893, -0.013464, -0.016515, -2.149686

149391534.843566, 0.168641, 0.238079, -0.080001, 0.104221, 0.046549, 1.044393, -15.157365, 21.693405, 53.908176, -0.010739, -0.015825, -2.155254

149391534.844569, 0.181774, 0.160499, -0.124594, 0.104221, 0.046549, 1.044393, -15.381065, 21.486839, 53.968403, -0.008035, -0.016048, -2.161309

149391534.845628, 0.214761, 0.065510, -0.085804, 0.044666, 0.077582, 1.013217, -15.560026, 21.321587, 54.016582, -0.004170, -0.016105, -2.166557

149391534.846641, 0.259049, -0.082320, -0.067172, 0.044666, 0.077582, 1.013217, -15.703195, 21.189384, 54.055126, -0.000042, -0.017646, -2.171630

149391534.847653, 0.229422, -0.166619, -0.070227, 0.044666, 0.077582, 1.013217, -15.817729, 21.083622, 54.085960, 0.003717, -0.019983, -2.176766

149391534.848716, 0.208042, -0.203882, -0.110544, 0.074444, 0.108614, 1.013217, -15.950429, 21.101053, 54.017334, 0.007797, -0.023460, -2.184145

149391534.849730, 0.115190, -0.231065, -0.196065, 0.074444, 0.108614, 0.997629, -16.056589, 21.114998, 53.962433, 0.010839, -0.027046, -2.192311

149391534.850748, 0.117939, -0.268939, -0.203395, -0.015630, 0.046549, 0.919689, -16.141518, 21.126154, 53.918510, 0.012899, -0.028850, -2.195786

149391534.851804, 0.129240, -0.283905, -0.131008, -0.015630, 0.046549, 0.919689, -16.065706, 21.114672, 53.930019, 0.015064, -0.030877, -2.198486

149391534.852817, 0.115495, -0.267717, -0.102908, -0.000000, 0.124131, 0.919689, -16.005056, 21.105486, 53.939228, 0.018694, -0.033174, -2.204287

149391534.853829, 0.110914, -0.245726, -0.123678, -0.000000, 0.124131, 0.919689, -15.956536, 21.098137, 53.946594, 0.022219, -0.035182, -2.210161

149391534.854894, 0.122215, -0.241450, -0.134979, -0.000000, 0.108614, 0.935277, -15.938257, 21.235115, 53.952488, 0.025477, -0.037128, -2.215275

149391534.855918, 0.076400, -0.229538, -0.139560, -0.000000, 0.108614, 0.935277, -15.923634, 21.344698, 53.957203, 0.028165, -0.038803, -2.220200

149391534.856930, 0.003707, -0.223430, -0.156053, -0.000000, 0.124131, 0.935277, -15.911935, 21.432364, 53.960976, 0.030415, -0.040398, -2.225745

149391534.857984, 0.001874, -0.241756, -0.211642, -0.000000, 0.124131, 0.935277, -15.902576, 21.502497, 53.963993, 0.032633, -0.042205, -2.231778

149391534.858988, 0.033945, -0.239923, -0.301745, 0.029778, 0.139647, 0.950865, -15.771871, 21.476971, 54.059704, 0.035385, -0.044525, -2.239978

149391534.860178, -0.000569, -0.219764, -0.320682, 0.029778, 0.139647, 0.950865, -15.667306, 21.456549, 54.136272, 0.037791, -0.046947, -2.248767

149391534.861064, -0.035694, -0.221597, -0.314573, 0.014889, 0.108614, 0.888513, -15.583654, 21.440212, 54.197525, 0.039341, -0.048295, -2.254907

149391534.862109, -0.045773, -0.218848, -0.271507, 0.014889, 0.108614, 0.888513, -15.537270, 21.386326, 54.153233, 0.040710, -0.049921, -2.260995

149391534.863109, -0.058296, -0.211212, -0.201257, -0.015630, 0.062065, 0.997629, -15.500162, 21.343216, 54.117798, 0.040667, -0.050597, -2.262946

149391534.864162, -0.045773, -0.203576, -0.109933, -0.015630, 0.062065, 0.997629, -15.470476, 21.308729, 54.089451, 0.040682, -0.051323, -2.264019

149391534.865173, -0.080592, -0.165703, -0.038767, 0.044666, 0.108614, 0.950865, -15.323509, 21.342363, 54.113422, 0.041375, -0.052984, -2.268048

149391534.866194, -0.070811, -0.172404, 0.008269, 0.044666, 0.108614, 0.950865, -15.205935, 21.369270, 54.132599, 0.042124, -0.054706, -2.271456

149391534.867256, -0.092191, -0.165074, 0.070577, -0.031260, 0.093098, 0.950865, -15.111876, 21.390797, 54.147942, 0.042231, -0.054702, -2.270670

149391534.868266, -0.094329, -0.203864, 0.096233, -0.031260, 0.093098, 0.950865, -14.954484, 21.265162, 54.230186, 0.042351, -0.055005, -2.269659

149391534.869318, -0.057983, -0.248151, 0.119141, -0.000000, 0.124131, 0.982041, -14.828569, 21.164652, 54.295982, 0.043421, -0.056604, -2.270759

149391534.870329, -0.057983, -0.248151, 0.141437, -0.000000, 0.124131, 0.982041, -14.727839, 21.084246, 54.348618, 0.044481, -0.058078, -2.271655

149391534.871394, -0.053707, -0.216386, 0.160374, -0.000000, 0.124131, 0.997629, -14.647253, 21.019920, 54.390728, 0.045476, -0.059331, -2.272170

149391534.872397, -0.048209, -0.188287, 0.164039, -0.000000, 0.124131, 0.997629, -14.541713, 21.090908, 54.401093, 0.046536, -0.060142, -2.272599

149391534.873447, -0.042100, -0.169350, 0.155182, -0.000000, 0.093098, 0.966453, -14.457280, 21.147699, 54.409382, 0.047025, -0.060774, -2.271877

149391534.874448, -0.037213, -0.158660, 0.142048, -0.000000, 0.093098, 0.966453, -14.389734, 21.193132, 54.416016, 0.047583, -0.061197, -2.271290

149391534.875506, -0.035075, -0.149802, 0.152738, 0.014889, 0.124131, 0.966453, -14.191943, 21.209070, 54.467968, 0.048785, -0.062000, -2.272175

149391534.876532, -0.039657, -0.125062, 0.176562, 0.014889, 0.124131, 0.966453, -14.033710, 21.221821, 54.509533, 0.049911, -0.062498, -2.272726

149391534.877545, -0.076920, -0.080469, 0.193055, 0.014889, 0.124131, 0.966453, -13.907124, 21.232021, 54.542782, 0.050638, -0.062531, -2.273015

149391534.878598, -0.120902, -0.042290, 0.192444, -0.000000, 0.124131, 0.950865, -13.744246, 21.158548, 54.522736, 0.050901, -0.061879, -2.272635

149391534.879607, -0.159997, -0.017550, 0.189695, -0.000000, 0.124131, 0.950865, -13.613943, 21.099770, 54.506699, 0.050829, -0.060970, -2.272305

149391534.880670, -0.177712, -0.004111, 0.185114, 0.014889, 0.108614, 0.950865, -13.509701, 21.052748, 54.493866, 0.050152, -0.060248, -2.271849

149391534.881673, -0.174658, -0.009303, 0.173508, 0.014889, 0.108614, 0.950865, -13.426307, 21.015129, 54.483601, 0.049638, -0.059577, -2.271593

149391534.882733, -0.136784, -0.028240, 0.160679, -0.000000, 0.124131, 0.982041, -13.380128, 20.821770, 54.592010, 0.049683, -0.058814, -2.271360

149391534.883739, -0.110811, -0.041369, 0.148446, -0.000000, 0.124131, 0.982041, -13.343185, 20.667082, 54.678738, 0.050072, -0.058175, -2.271433

149391534.884789, -0.090338, -0.048084, 0.129801, 0.014889, 0.124131, 0.982041, -13.313631, 20.543331, 54.748119, 0.050626, -0.057956, -2.272322

149391534.885796, -0.105903, -0.042887, 0.115739, 0.014889, 0.124131, 0.982041, -13.269451, 20.587189, 54.850273, 0.051063, -0.057658, -2.273330

149391534.886821, -0.137043, -0.017839, 0.091906, 0.044666, 0.124131, 0.966453, -13.234107, 20.622274, 54.931995, 0.051184, -0.057773, -2.275702

149391534.887874, -0.179479, 0.022170, 0.070824, 0.044666, 0.124131, 0.966453, -13.205832, 20.650343, 54.997372, 0.050835, -0.057466, -2.278169

149391534.888884, -0.211855, 0.047215, 0.047305, 0.014889, 0.093098, 0.997629, -13.121603, 20.591166, 55.003025, 0.049568, -0.056184, -2.278283

149391534.889946, -0.200228, 0.047210, 0.028365, 0.014889, 0.093098, 0.997629, -13.054220, 20.543823, 55.007549, 0.048347, -0.054894, -2.278551

149391534.890959, -0.174858, 0.028576, 0.019811, -0.000000, 0.093098, 0.982041, -13.000314, 20.505949, 55.011169, 0.047525, -0.053522, -2.278347

149391534.891965, -0.162929, 0.025214, 0.004539, -0.000000, 0.093098, 0.982041, -13.100943, 20.434834, 55.060711, 0.046859, -0.052208, -2.278427

149391534.893022, -0.138800, 0.021548, -0.001875, 0.044666, 0.108614, 0.982041, -13.181446, 20.377941, 55.100346, 0.046695, -0.051926, -2.281027

149391534.894028, -0.116797, 0.009941, -0.006456, 0.044666, 0.108614, 0.982041, -13.245849, 20.332428, 55.132053, 0.046823, -0.051773, -2.283700

149391534.895083, -0.107928, 0.005053, -0.004928, 0.029778, 0.108614, 0.982041, -13.297371, 20.296017, 55.157417, 0.046998, -0.051351, -2.285831

149391534.896097, -0.106084, 0.002610, -0.005538, 0.029778, 0.108614, 0.982041, -13.215370, 20.185255, 55.201035, 0.047230, -0.050963, -2.287951

149391534.897160, -0.097522, -0.011134, -0.011035, 0.014889, 0.093098, 0.982041, -13.149770, 20.096645, 55.235928, 0.047181, -0.050376, -2.288908

149391534.898165, -0.098428, -0.032816, -0.016226, 0.014889, 0.093098, 0.982041, -13.097289, 20.025759, 55.263844, 0.047183, -0.050005, -2.289912

149391534.899216, -0.093836, -0.053885, -0.018056, 0.014889, 0.077582, 0.982041, -13.014233, 20.050682, 55.262852, 0.046862, -0.049855, -2.290264

149391534.900224, -0.070311, -0.070982, -0.020192, 0.014889, 0.077582, 0.982041, -12.947787, 20.070620, 55.262058, 0.046820, -0.049852, -2.290570

149391534.901279, -0.056255, -0.072196, -0.021717, 0.014889, 0.093098, 0.982041, -12.894630, 20.086571, 55.261421, 0.047216, -0.049906, -2.291437

149391534.902285, -0.043422, -0.053559, -0.020188, 0.014889, 0.093098, 0.982041, -12.893178, 20.017698, 55.330883, 0.047757, -0.049743, -2.292303

149391534.903335, -0.037309, -0.033702, -0.018048, 0.029778, 0.077582, 0.982041, -12.892016, 19.962601, 55.386456, 0.048011, -0.049700, -2.293168

149391534.904348, -0.053492, -0.015375, -0.017435, 0.029778, 0.077582, 0.982041, -12.891087, 19.918522, 55.430912, 0.048112, -0.049465, -2.294024

149391534.905402, -0.061121, -0.005295, -0.021098, 0.029778, 0.077582, 0.950865, -12.910879, 19.781218, 55.489803, 0.048166, -0.049159, -2.295145

149391534.906411, -0.072720, 0.001730, -0.026288, -0.000000, 0.077582, 0.950865, -12.926713, 19.671375, 55.536915, 0.048117, -0.048141, -2.295099

149391534.907423, -0.080042, 0.004784, -0.031477, -0.000000, 0.077582, 0.950865, -12.939381, 19.583502, 55.574604, 0.047998, -0.047112, -2.295176

149391534.908477, -0.085845, 0.009060, -0.031782, 0.014889, 0.062065, 0.997629, -12.949514, 19.513203, 55.604755, 0.047406, -0.046356, -2.295231

149391534.909484, -0.108436, 0.016083, -0.040635, 0.014889, 0.062065, 0.997629, -12.875476, 19.538595, 55.535580, 0.046644, -0.045547, -2.295283

149391534.910549, -0.095597, 0.000811, -0.052847, -0.000000, 0.077582, 0.997629, -12.816245, 19.558910, 55.480240, 0.046279, -0.044595, -2.295370

149391534.911562, -0.064437, -0.015986, -0.047650, -0.000000, 0.077582, 0.997629, -12.768861, 19.575161, 55.435966, 0.046276, -0.043831, -2.295334

149391534.912572, -0.047943, -0.022705, -0.050399, -0.000000, 0.031033, 0.982041, -12.792562, 19.547346, 55.400551, 0.045487, -0.043171, -2.293814

149391534.913620, -0.041219, -0.016595, -0.056196, -0.000000, 0.031033, 0.982041, -12.811523, 19.525093, 55.372215, 0.044769, -0.042466, -2.292427

149391534.914675, -0.060455, -0.004988, -0.056496, 0.014889, 0.062065, 0.982041, -12.826693, 19.507292, 55.349548, 0.044532, -0.041942, -2.292747

149391534.915687, -0.067778, -0.002850, -0.054963, 0.014889, 0.062065, 0.982041, -12.900436, 19.431826, 55.401386, 0.044252, -0.041408, -2.293123

149391534.916694, -0.062274, 0.000510, -0.050987, 0.029778, 0.077582, 0.997629, -12.959432, 19.371452, 55.442856, 0.044331, -0.041164, -2.294641

149391534.917750, -0.049746, 0.006618, -0.045484, 0.029778, 0.077582, 0.997629, -13.006628, 19.323154, 55.476032, 0.044507, -0.040864, -2.296159

149391534.918757, -0.037525, 0.014863, -0.039677, -0.000000, 0.062065, 0.966453, -13.044385, 19.284515, 55.502575, 0.044532, -0.039877, -2.295918

149391534.919813, -0.030497, 0.009670, -0.037229, -0.000000, 0.062065, 0.966453, -13.033518, 19.212790, 55.523808, 0.044612, -0.038957, -2.295714

149391534.920825, -0.011864, 0.000201, -0.036004, 0.014889, 0.062065, 0.982041, -13.024824, 19.155409, 55.540794, 0.044879, -0.038462, -2.296110

149391534.921888, -0.008198, -0.010793, -0.041192, 0.014889, 0.062065, 0.982041, -13.017869, 19.109503, 55.554382, 0.045176, -0.038089, -2.296601

149391534.922901, -0.010030, -0.005906, -0.036301, 0.014889, 0.093098, 0.982041, -13.012305, 19.113594, 55.518608, 0.046091, -0.037702, -2.298227

149391534.923951, -0.019801, 0.002036, -0.023776, 0.014889, 0.093098, 0.982041, -13.007854, 19.116867, 55.489986, 0.046878, -0.037247, -2.299694

149391534.924954, -0.007278, 0.003868, -0.004838, -0.015630, 0.062065, 0.997629, -13.004293, 19.119486, 55.467091, 0.047077, -0.036139, -2.298354

149391534.926014, -0.003918, 0.002646, 0.044942, -0.015630, 0.062065, 0.997629, -13.104127, 19.060356, 55.495419, 0.047290, -0.035089, -2.296644

149391534.927019, 0.026012, -0.001325, 0.084334, 0.014889, 0.077582, 0.982041, -13.183993, 19.013054, 55.518082, 0.048156, -0.034755, -2.296634

149391534.928082, 0.027842, 0.005394, 0.066612, 0.014889, 0.077582, 0.982041, -13.247887, 18.975212, 55.536213, 0.049044, -0.034353, -2.296830

149391534.929087, 0.005239, 0.015777, 0.022017, 0.029778, 0.093098, 1.013217, -13.278465, 19.046978, 55.527393, 0.049944, -0.034146, -2.298526

149391534.930135, -0.024996, 0.034710, 0.004301, 0.029778, 0.093098, 1.013217, -13.302928, 19.104391, 55.520340, 0.050522, -0.033733, -2.300326

