Using settings file RTIMULib.ini
IMU Name: L3GD20 + LSM303DLHC
IMU Init Succeeded
Recommended Poll Interval: 4mS

Time, gyroX, gyroY, gyroZ, accelX, accelY, accelZ, magX, magY, magZ, phi, theta, psi

149391561.149277, 0.025984, -0.022157, -0.089831, -0.015630, -0.015483, 0.935277, -3.378392, 2.703543, 11.331664, -0.016553, 0.016708, -2.405272

149391561.150062, 0.008992, -0.001359, -0.074485, -0.015630, -0.015483, 0.935277, -6.081105, 4.866378, 20.396996, -0.016492, 0.016688, -2.405856

149391561.150809, -0.013323, 0.012723, -0.043914, -0.000000, 0.000000, 0.966453, -8.243276, 6.596646, 27.649260, -0.016275, 0.016432, -2.407394

149391561.151798, -0.031581, 0.015146, -0.016976, -0.000000, 0.000000, 0.966453, -9.973012, 7.980860, 33.451073, -0.016268, 0.016238, -2.408744

149391561.152795, -0.024936, -0.000422, 0.006704, -0.015630, 0.000000, 0.982041, -11.377337, 9.047416, 38.092522, -0.016186, 0.016223, -2.409361

149391561.153862, -0.008863, -0.006991, 0.017626, -0.015630, 0.000000, 0.982041, -12.500798, 9.900660, 41.805683, -0.015952, 0.016141, -2.409886

149391561.154863, 0.004779, -0.020897, 0.015461, -0.000000, 0.015516, 0.997629, -13.399567, 10.583255, 44.776211, -0.015288, 0.015586, -2.411648

149391561.155892, 0.019628, -0.027633, 0.001979, -0.000000, 0.015516, 0.997629, -14.077508, 11.149739, 47.105984, -0.014487, 0.014968, -2.413478

149391561.156925, 0.034165, -0.039310, -0.001651, -0.031260, 0.000000, 1.028805, -14.619862, 11.602927, 48.969803, -0.013851, 0.014878, -2.413576

149391561.157966, 0.050190, -0.053134, 0.003168, -0.031260, 0.000000, 1.028805, -15.053744, 11.965478, 50.460857, -0.013061, 0.014646, -2.413605

149391561.158988, 0.059598, -0.038261, 0.022238, -0.031260, 0.000000, 0.997629, -15.462460, 12.296334, 51.630379, -0.012200, 0.014599, -2.413409

149391561.160035, 0.058643, -0.028486, 0.045690, -0.000000, 0.000000, 0.997629, -15.789432, 12.561019, 52.565994, -0.011355, 0.014013, -2.414058

149391561.161062, 0.047840, -0.009348, 0.066854, -0.000000, 0.000000, 0.997629, -16.051010, 12.772767, 53.314487, -0.010644, 0.013641, -2.414491

149391561.162080, 0.049225, -0.000181, 0.078603, -0.015630, 0.000000, 0.982041, -16.260273, 12.942165, 53.913280, -0.009929, 0.013690, -2.414271

149391561.163128, 0.048488, 0.012082, 0.087114, -0.015630, 0.000000, 0.982041, -16.407146, 13.098092, 54.438965, -0.009220, 0.013864, -2.413917

149391561.164148, 0.048663, 0.013921, 0.095745, -0.015630, 0.000000, 0.935277, -16.524645, 13.222834, 54.859512, -0.008535, 0.014067, -2.413456

149391561.165198, 0.053618, 0.014525, 0.107184, -0.015630, 0.000000, 0.935277, -16.618645, 13.322627, 55.195950, -0.007797, 0.014276, -2.412840

149391561.166227, 0.053686, 0.024684, 0.123167, -0.000000, 0.000000, 0.966453, -16.673307, 13.422870, 55.465099, -0.007089, 0.014245, -2.412618

149391561.167240, 0.048967, 0.020576, 0.119677, -0.000000, 0.000000, 0.966453, -16.717037, 13.503064, 55.680420, -0.006451, 0.014169, -2.412420

149391561.168290, 0.038368, 0.033598, 0.114766, -0.000000, 0.031033, 0.997629, -16.752022, 13.567220, 55.852676, -0.005306, 0.014197, -2.413527

149391561.169297, 0.031281, 0.040366, 0.108462, -0.000000, 0.031033, 0.997629, -16.780008, 13.659360, 56.013805, -0.004270, 0.014278, -2.414669

149391561.170313, 0.045274, 0.034732, 0.098405, -0.000000, 0.000000, 0.982041, -16.802399, 13.733072, 56.142708, -0.003726, 0.014341, -2.414524

149391561.171343, 0.050301, 0.041476, 0.095436, -0.000000, 0.000000, 0.982041, -16.820311, 13.792042, 56.245831, -0.003136, 0.014475, -2.414367

149391561.172397, 0.061202, 0.045387, 0.094025, -0.000000, 0.015516, 0.966453, -16.793568, 13.737177, 56.258358, -0.002117, 0.014643, -2.414889

149391561.173443, 0.059017, 0.042936, 0.091149, -0.000000, 0.015516, 0.966453, -16.772173, 13.693285, 56.268379, -0.001146, 0.014779, -2.415458

149391561.174457, 0.061362, 0.048012, 0.067402, -0.000000, 0.046549, 0.966453, -16.755056, 13.658172, 56.276394, 0.000435, 0.014891, -2.417740

149391561.175462, 0.059472, 0.060756, 0.043259, -0.000000, 0.046549, 0.966453, -16.741364, 13.630081, 56.282806, 0.001958, 0.015124, -2.420235

149391561.176531, 0.044506, 0.085801, 0.030431, -0.046891, 0.000000, 0.935277, -16.792019, 13.709649, 56.264614, 0.002372, 0.016720, -2.418809

149391561.177539, 0.045662, 0.085490, 0.037265, -0.046891, 0.000000, 0.935277, -16.832542, 13.773304, 56.250061, 0.002765, 0.018230, -2.417345

149391561.178581, 0.045000, 0.060368, 0.060700, -0.015630, 0.000000, 0.966453, -16.864962, 13.824227, 56.238419, 0.003180, 0.018803, -2.416928

149391561.179630, 0.040464, 0.042652, 0.085734, -0.015630, 0.000000, 0.966453, -16.911434, 13.946599, 56.299076, 0.003549, 0.019186, -2.416199

149391561.180642, 0.045892, 0.042950, 0.094395, -0.000000, 0.015516, 0.966453, -16.948612, 14.044497, 56.347599, 0.004260, 0.019218, -2.416578

149391561.181666, 0.052102, 0.053707, 0.091510, -0.000000, 0.015516, 0.966453, -16.978354, 14.122814, 56.386417, 0.005024, 0.019361, -2.416926

149391561.182677, 0.039045, 0.066629, 0.088986, 0.014889, 0.015516, 0.966453, -17.002148, 14.205876, 56.347504, 0.005619, 0.019313, -2.417736

149391561.183717, 0.025964, 0.072702, 0.076946, 0.014889, 0.015516, 0.966453, -17.021183, 14.272326, 56.316372, 0.006079, 0.019347, -2.418588

149391561.184768, 0.035882, 0.052035, 0.052303, 0.014889, 0.015516, 0.966453, -17.036411, 14.325486, 56.291466, 0.006630, 0.019177, -2.419639

149391561.185782, 0.029745, 0.039876, 0.034458, 0.014889, 0.015516, 0.966453, -17.048594, 14.368014, 56.271542, 0.007094, 0.018873, -2.420842

149391561.186807, 0.030314, 0.033655, 0.026257, 0.014889, 0.000000, 0.997629, -17.058338, 14.402037, 56.255600, 0.007247, 0.018536, -2.421440

149391561.187871, 0.019510, 0.050587, 0.027798, 0.014889, 0.000000, 0.997629, -17.066135, 14.429255, 56.242847, 0.007297, 0.018396, -2.421985

149391561.188868, -0.006914, 0.078227, 0.040967, 0.014889, 0.000000, 0.997629, -17.072372, 14.451029, 56.232647, 0.007078, 0.018494, -2.422395

149391561.189918, -0.072848, 0.121430, 0.073891, -0.000000, 0.000000, 0.966453, -17.118435, 14.570489, 56.177837, 0.006198, 0.019370, -2.421908

149391561.190935, -0.130575, 0.165412, 0.108711, -0.000000, 0.000000, 0.966453, -17.155285, 14.666058, 56.133991, 0.004792, 0.020626, -2.421063

149391561.191961, -0.146152, 0.144643, 0.115736, 0.044666, 0.000000, 0.982041, -17.184765, 14.742513, 56.098911, 0.003199, 0.020757, -2.421465

149391561.193015, -0.127520, 0.095774, 0.109322, 0.044666, 0.000000, 0.982041, -17.228886, 14.783268, 56.187469, 0.001790, 0.020422, -2.421893

149391561.194018, -0.068025, 0.020502, 0.092668, -0.000000, 0.000000, 0.982041, -17.264181, 14.815872, 56.258316, 0.001102, 0.020214, -2.421192

149391561.195060, 0.013241, -0.080395, 0.072179, -0.000000, 0.000000, 0.982041, -17.292418, 14.841955, 56.314991, 0.001227, 0.018989, -2.420678

149391561.196096, 0.077381, -0.145452, 0.041025, 0.059555, 0.000000, 0.950865, -17.273935, 14.822006, 56.313686, 0.001917, 0.015883, -2.422283

149391561.197131, 0.111590, -0.184547, 0.001624, 0.059555, 0.000000, 0.950865, -17.259150, 14.806046, 56.312641, 0.002936, 0.012446, -2.424263

149391561.198146, 0.103954, -0.183325, -0.017618, 0.074444, 0.015516, 0.919689, -17.247320, 14.793279, 56.311806, 0.004111, 0.008745, -2.427445

149391561.199187, 0.083185, -0.162556, -0.030446, 0.074444, 0.015516, 0.919689, -17.237856, 14.783065, 56.311138, 0.005086, 0.005282, -2.430704

149391561.200223, 0.051114, -0.144841, -0.036250, 0.074444, 0.031033, 0.966453, -17.209749, 14.795301, 56.217308, 0.006009, 0.002132, -2.434413

149391561.201246, 0.006384, -0.109200, -0.042364, 0.074444, 0.031033, 0.966453, -17.187263, 14.805091, 56.142242, 0.006469, -0.000578, -2.438085

149391561.202284, -0.045179, -0.072217, -0.053432, 0.059555, 0.062065, 0.935277, -17.169275, 14.812922, 56.082191, 0.007072, -0.002687, -2.442862

149391561.203304, -0.098347, -0.039899, -0.079516, 0.059555, 0.062065, 0.935277, -17.113811, 14.839596, 56.104122, 0.007148, -0.004413, -2.447754

149391561.204347, -0.125280, -0.030986, -0.118207, 0.029778, 0.046549, 0.966453, -17.069441, 14.860934, 56.121666, 0.006661, -0.005297, -2.451363

149391561.205383, -0.131912, -0.032726, -0.144722, 0.029778, 0.046549, 0.966453, -17.033945, 14.878005, 56.135700, 0.006130, -0.006178, -2.455132

149391561.206422, -0.131912, -0.021730, -0.154496, -0.031260, 0.046549, 0.950865, -17.026085, 14.748805, 56.193577, 0.005658, -0.005617, -2.457069

149391561.207416, -0.126145, -0.051771, -0.143768, -0.031260, 0.046549, 0.950865, -17.019796, 14.645445, 56.239876, 0.005309, -0.005354, -2.458877

149391561.208479, -0.103157, -0.073405, -0.134463, -0.000000, 0.046549, 0.935277, -17.014765, 14.562757, 56.276917, 0.005136, -0.006039, -2.461853

149391561.209476, -0.090221, -0.096677, -0.133127, -0.000000, 0.046549, 0.935277, -16.969667, 14.455790, 56.306549, 0.005159, -0.006891, -2.464732

149391561.210509, -0.090116, -0.087765, -0.135108, -0.000000, 0.062065, 0.966453, -16.933588, 14.370216, 56.330254, 0.005444, -0.007701, -2.468349

149391561.211571, -0.108551, -0.073957, -0.131965, -0.000000, 0.062065, 0.966453, -16.904726, 14.301758, 56.349220, 0.005507, -0.008374, -2.471942

149391561.212564, -0.129931, -0.052577, -0.129827, -0.000000, 0.015516, 0.997629, -16.881636, 14.246990, 56.364391, 0.004454, -0.008712, -2.473206

149391561.213632, -0.117328, -0.044593, -0.131878, -0.000000, 0.015516, 0.997629, -16.904236, 14.162360, 56.399853, 0.003461, -0.008999, -2.474636

149391561.214629, -0.109476, -0.047840, -0.131194, -0.000000, 0.015516, 0.997629, -16.922318, 14.094657, 56.428223, 0.002644, -0.009284, -2.476000

149391561.215710, -0.118833, -0.050421, -0.111987, -0.000000, 0.015516, 0.997629, -16.936783, 14.040494, 56.450916, 0.001655, -0.009630, -2.477288

149391561.216727, -0.126468, -0.082491, -0.097021, 0.059555, 0.015516, 0.966453, -16.948355, 13.976755, 56.469074, 0.000645, -0.011503, -2.480140

149391561.217721, -0.095102, -0.076868, -0.095576, 0.014889, 0.015516, 0.966453, -16.957611, 13.925764, 56.483601, 0.000037, -0.012335, -2.481686

149391561.218791, -0.087120, -0.078838, -0.092667, 0.014889, 0.015516, 0.966453, -16.965017, 13.884972, 56.495220, -0.000544, -0.013228, -2.483276

149391561.219797, -0.090966, -0.055052, -0.091314, -0.000000, 0.031033, 0.997629, -16.909332, 13.791113, 56.434544, -0.000791, -0.013519, -2.484979

149391561.220824, -0.101908, -0.025487, -0.084309, -0.000000, 0.031033, 0.997629, -16.864784, 13.716026, 56.386002, -0.001162, -0.013519, -2.486630

149391561.221885, -0.110527, 0.001959, -0.065192, 0.014889, 0.000000, 0.966453, -16.829145, 13.655957, 56.347168, -0.002279, -0.013538, -2.487262

149391561.222879, -0.134512, 0.004609, -0.041394, 0.014889, 0.000000, 0.966453, -16.800634, 13.607902, 56.316101, -0.003539, -0.013531, -2.487626

149391561.223947, -0.151006, -0.025323, -0.027039, 0.059555, 0.000000, 0.997629, -16.798363, 13.487823, 56.337898, -0.005074, -0.014722, -2.489176

149391561.224947, -0.120020, -0.016418, -0.022583, 0.059555, 0.000000, 0.997629, -16.796545, 13.391762, 56.355335, -0.006173, -0.015786, -2.490698

149391561.225964, -0.070250, -0.020258, -0.015230, 0.029778, 0.000000, 0.982041, -16.795092, 13.314912, 56.369286, -0.006751, -0.016281, -2.491386

149391561.227028, -0.027808, -0.067074, -0.014610, 0.029778, 0.000000, 0.982041, -16.773392, 13.273840, 56.427094, -0.006907, -0.017264, -2.492077

149391561.228068, 0.015535, -0.097656, -0.025366, 0.014889, 0.015516, 0.966453, -16.756033, 13.240983, 56.473339, -0.006284, -0.018232, -2.493109

149391561.229083, 0.039427, -0.087228, -0.035895, 0.014889, 0.015516, 0.966453, -16.742146, 13.214697, 56.510334, -0.005438, -0.019054, -2.494235

149391561.230088, 0.043082, -0.088082, -0.051585, 0.044666, 0.046549, 0.982041, -16.710499, 13.254893, 56.563255, -0.003986, -0.020525, -2.497651

149391561.231160, 0.058620, -0.078155, -0.132425, 0.044666, 0.046549, 0.982041, -16.685181, 13.287050, 56.605591, -0.002349, -0.021917, -2.501850

149391561.232174, 0.072364, -0.015846, -0.145864, -0.000000, -0.015483, 0.982041, -16.664927, 13.312776, 56.639462, -0.001880, -0.021649, -2.501974

149391561.233217, 0.073532, -0.013420, -0.012129, -0.000000, -0.015483, 0.982041, -16.648724, 13.292540, 56.666557, -0.001418, -0.021363, -2.500774

149391561.234250, 0.054901, -0.019223, 0.044681, 0.014889, 0.031033, 0.919689, -16.635761, 13.276351, 56.688232, -0.000165, -0.021476, -2.501656

149391561.235250, 0.051054, -0.060978, 0.022511, 0.014889, 0.031033, 0.919689, -16.625391, 13.263400, 56.705574, 0.001012, -0.021989, -2.502759

149391561.236282, 0.010737, -0.059451, -0.008337, 0.074444, 0.046549, 0.966453, -16.617096, 13.253039, 56.719448, 0.001969, -0.023764, -2.506298

149391561.237316, -0.006832, -0.076438, -0.010255, 0.074444, 0.046549, 0.966453, -16.528315, 13.163118, 56.707222, 0.002734, -0.025674, -2.509822

149391561.238355, -0.024927, -0.041042, -0.017215, 0.104221, 0.062065, 0.982041, -16.457289, 13.091181, 56.697441, 0.003506, -0.027818, -2.514568

149391561.239383, -0.055797, -0.006091, -0.062301, 0.104221, 0.062065, 0.982041, -16.400469, 13.033631, 56.689617, 0.003973, -0.029558, -2.519697

149391561.240430, -0.090617, -0.022279, -0.146600, 0.059555, 0.000000, 0.935277, -16.355013, 13.028408, 56.613384, 0.002995, -0.030461, -2.522057

149391561.241479, -0.124825, -0.033275, -0.231816, 0.059555, 0.000000, 0.935277, -16.318647, 13.024229, 56.552399, 0.001713, -0.031459, -2.525233

149391561.242453, -0.067709, -0.058626, -0.213796, 0.059555, 0.000000, 0.904101, -16.289555, 13.020885, 56.503613, 0.001086, -0.032701, -2.528044

149391561.243528, -0.072291, -0.145674, -0.123388, 0.059555, 0.000000, 0.904101, -16.245745, 12.936579, 56.534554, 0.000335, -0.034896, -2.530100

149391561.244534, -0.045413, -0.060153, -0.085819, 0.029778, 0.062065, 1.044393, -16.210697, 12.869133, 56.559307, 0.001104, -0.035431, -2.533398

149391561.245573, 0.027603, -0.041544, -0.102551, 0.029778, 0.062065, 1.044393, -16.182659, 12.815176, 56.579109, 0.002596, -0.035782, -2.536864

149391561.246596, -0.001084, -0.072065, -0.081555, 0.029778, 0.062065, 1.044393, -16.119156, 12.731194, 56.664925, 0.003758, -0.036422, -2.540085

149391561.247642, 0.008079, -0.067178, -0.127370, -0.000000, -0.015483, 0.950865, -16.068354, 12.664009, 56.733578, 0.003451, -0.036398, -2.539379

149391561.248671, 0.026447, -0.058887, -0.142927, -0.000000, -0.015483, 0.950865, -16.027712, 12.610261, 56.788498, 0.003340, -0.036279, -2.538835

149391561.249702, 0.024395, -0.037016, -0.091779, 0.014889, -0.015483, 0.982041, -15.995197, 12.567263, 56.832436, 0.003223, -0.036241, -2.538335

149391561.250738, 0.040028, -0.042516, -0.030046, 0.014889, -0.015483, 0.982041, -16.030794, 12.594089, 56.820938, 0.003246, -0.036264, -2.537222

149391561.251752, 0.040082, -0.018896, 0.019324, -0.000000, -0.015483, 0.997629, -16.059273, 12.615549, 56.811737, 0.003228, -0.035745, -2.535133

149391561.252798, -0.003818, 0.007814, 0.073036, -0.000000, -0.015483, 0.997629, -16.082056, 12.632717, 56.804379, 0.002755, -0.034970, -2.532529

149391561.253834, -0.028864, 0.020947, 0.109077, 0.014889, 0.000000, 0.935277, -16.038673, 12.728085, 56.821815, 0.002362, -0.034380, -2.530715

149391561.254820, -0.046794, -0.025540, 0.017080, 0.014889, 0.000000, 0.935277, -16.003967, 12.804379, 56.835766, 0.001850, -0.034258, -2.529803

149391561.255864, -0.031217, -0.078380, -0.204358, -0.000000, 0.000000, 0.966453, -15.976202, 12.865414, 56.846924, 0.001543, -0.034373, -2.530572

149391561.256922, 0.003908, -0.069828, -0.250173, -0.000000, 0.000000, 0.966453, -15.933454, 12.832609, 56.879177, 0.001619, -0.034407, -2.531828

149391561.257922, 0.016383, -0.006763, -0.071784, 0.014889, -0.015483, 0.966453, -15.899255, 12.806366, 56.904980, 0.001436, -0.034105, -2.531012

149391561.258971, 0.014543, 0.068130, 0.131853, 0.014889, -0.015483, 0.966453, -15.871896, 12.785371, 56.925621, 0.001178, -0.033046, -2.528151

149391561.259987, -0.028828, 0.094091, 0.319999, 0.029778, 0.000000, 0.935277, -15.850008, 12.768575, 56.942135, 0.000764, -0.032088, -2.524709

149391561.261017, -0.078003, 0.046444, 0.370090, 0.029778, 0.000000, 0.935277, -15.853035, 12.571465, 56.908695, -0.000158, -0.031615, -2.520934

149391561.262065, -0.073421, 0.002156, 0.156288, 0.044666, 0.015516, 0.982041, -15.855456, 12.413776, 56.881943, -0.000652, -0.031879, -2.520571

149391561.263107, -0.057224, 0.000915, 0.056121, 0.044666, 0.015516, 0.982041, -15.857393, 12.287626, 56.860542, -0.000935, -0.032152, -2.521348

149391561.264120, -0.022830, 0.010165, 0.041783, 0.014889, 0.000000, 0.997629, -15.817870, 12.349971, 56.890072, -0.001159, -0.031706, -2.520583

149391561.265170, 0.000673, -0.011577, 0.033727, 0.014889, 0.000000, 0.997629, -15.786251, 12.399847, 56.913696, -0.001143, -0.031488, -2.519844

149391561.266200, 0.021589, -0.052297, 0.041688, 0.014889, 0.000000, 0.966453, -15.760956, 12.439748, 56.932594, -0.000919, -0.031694, -2.519016

149391561.267225, 0.049839, -0.090664, 0.058452, 0.014889, 0.000000, 0.966453, -15.720183, 12.492077, 56.971035, -0.000423, -0.032279, -2.517975

149391561.268220, 0.070609, -0.115710, 0.084108, 0.059555, 0.000000, 0.997629, -15.687566, 12.533939, 57.001789, 0.000236, -0.033954, -2.517990

149391561.269292, 0.088629, -0.132814, 0.114040, 0.059555, 0.000000, 0.997629, -15.661471, 12.567430, 57.026390, 0.001112, -0.035863, -2.517592

149391561.270290, 0.073052, -0.153278, 0.126258, 0.044666, 0.015516, 0.966453, -15.620059, 12.512589, 57.022751, 0.002074, -0.037578, -2.517514

149391561.271328, 0.001249, -0.106696, 0.102969, 0.044666, 0.015516, 0.966453, -15.586929, 12.468718, 57.019836, 0.002322, -0.038845, -2.517643

149391561.272366, -0.104027, 0.097377, 0.061930, 0.029778, 0.031033, 0.982041, -15.560426, 12.433619, 57.017506, 0.001830, -0.037707, -2.518471

149391561.273401, -0.118581, 0.139579, 0.054647, 0.029778, 0.031033, 0.982041, -15.539223, 12.405541, 57.015640, 0.001206, -0.036165, -2.519370

149391561.274408, -0.071832, 0.069365, 0.023895, 0.029778, 0.031033, 0.982041, -15.501724, 12.485120, 56.897530, 0.001099, -0.035384, -2.520480

149391561.275447, -0.033542, 0.033221, -0.010096, 0.029778, 0.000000, 0.966453, -15.471725, 12.548782, 56.803040, 0.000739, -0.034954, -2.520406

149391561.276493, -0.020577, 0.022355, 0.003571, 0.029778, 0.000000, 0.966453, -15.447726, 12.599712, 56.727448, 0.000512, -0.034642, -2.520142

149391561.277510, 0.012746, 0.075705, 0.040871, 0.029778, 0.000000, 0.997629, -15.469600, 12.620049, 56.783596, 0.000614, -0.033792, -2.519479

149391561.278537, 0.024438, 0.093546, 0.095326, 0.029778, 0.000000, 0.997629, -15.487099, 12.636317, 56.828514, 0.000815, -0.032772, -2.518275

149391561.279581, -0.000595, 0.108321, 0.135778, 0.044666, 0.000000, 0.997629, -15.501098, 12.649332, 56.864449, 0.000747, -0.031904, -2.517114

149391561.280622, -0.036025, 0.128480, 0.183120, 0.044666, 0.000000, 0.997629, -15.532833, 12.659744, 56.823223, 0.000304, -0.030851, -2.515505

149391561.281641, -0.066873, 0.151998, 0.157158, 0.029778, 0.000000, 0.997629, -15.558222, 12.668074, 56.790241, -0.000418, -0.029313, -2.513786

149391561.282690, -0.060084, 0.110227, 0.079996, 0.029778, 0.000000, 0.997629, -15.578532, 12.674737, 56.763859, -0.001051, -0.028189, -2.512856

149391561.283716, -0.090513, 0.079202, 0.057980, 0.029778, -0.015483, 0.982041, -15.615317, 12.598435, 56.812725, -0.002270, -0.027439, -2.511615

149391561.284736, -0.030302, 0.005176, 0.037025, 0.029778, -0.015483, 0.982041, -15.644746, 12.537394, 56.851818, -0.002852, -0.027447, -2.510671

149391561.285776, 0.054954, -0.038288, 0.000365, 0.014889, 0.000000, 0.982041, -15.668288, 12.488561, 56.883091, -0.002237, -0.027591, -2.510344

149391561.286803, 0.100740, -0.062599, 0.000357, 0.014889, 0.000000, 0.982041, -15.687122, 12.449494, 56.908112, -0.001180, -0.027973, -2.510065

149391561.287811, 0.078885, -0.057394, 0.014403, 0.044666, 0.000000, 0.982041, -15.681653, 12.479465, 56.951450, -0.000387, -0.028889, -2.510559

149391561.288856, 0.040746, -0.049607, 0.031442, 0.044666, 0.000000, 0.982041, -15.677278, 12.503443, 56.986122, 0.000024, -0.029729, -2.510844

149391561.289898, 0.020154, -0.019261, -0.017957, 0.029778, 0.015516, 0.982041, -15.673778, 12.522624, 57.013859, 0.000550, -0.029943, -2.511866

149391561.290929, -0.034091, 0.090580, -0.064224, 0.029778, 0.015516, 0.982041, -15.650441, 12.497153, 57.012726, 0.000529, -0.029041, -2.513340

149391561.291929, -0.033672, 0.099138, -0.115496, 0.044666, 0.000000, 0.966453, -15.631772, 12.476776, 57.011818, 0.000216, -0.028412, -2.515043

149391561.292970, -0.023694, 0.092865, -0.136088, 0.044666, 0.000000, 0.966453, -15.616837, 12.460475, 57.011093, 0.000004, -0.027820, -2.516972

149391561.294029, -0.049208, 0.093601, -0.127542, 0.014889, 0.000000, 0.966453, -15.687034, 12.427026, 56.917213, -0.000473, -0.026600, -2.517915

149391561.295034, -0.051461, 0.049471, -0.073129, 0.014889, 0.000000, 0.966453, -15.743191, 12.400267, 56.842110, -0.000953, -0.025889, -2.518287

149391561.296063, -0.037521, 0.023014, -0.037802, -0.000000, -0.015483, 0.966453, -15.788116, 12.378859, 56.782028, -0.001642, -0.025151, -2.517139

149391561.297117, 0.027854, -0.073749, 0.004555, -0.000000, -0.015483, 0.966453, -15.824058, 12.361732, 56.733963, -0.001661, -0.025421, -2.515620

149391561.298114, 0.061951, -0.126017, 0.053495, 0.014889, -0.015483, 0.950865, -15.832274, 12.409256, 56.765484, -0.001367, -0.026463, -2.514148

149391561.299203, 0.046594, -0.130241, 0.070907, 0.014889, -0.015483, 0.950865, -15.838848, 12.447275, 56.790699, -0.001194, -0.027643, -2.512447

149391561.300202, 0.019002, -0.125705, 0.090644, 0.029778, 0.000000, 0.966453, -15.844107, 12.477690, 56.810871, -0.001010, -0.028936, -2.511800

149391561.301228, -0.017278, -0.077311, 0.127905, 0.029778, 0.000000, 0.966453, -15.766168, 12.502022, 56.850334, -0.001201, -0.029750, -2.510706

149391561.302263, -0.065353, -0.082860, 0.029232, 0.059555, 0.015516, 0.966453, -15.703816, 12.521487, 56.881905, -0.001555, -0.031240, -2.512137

149391561.303303, -0.063977, -0.084105, -0.059888, 0.059555, 0.015516, 0.966453, -15.653935, 12.537060, 56.907162, -0.001859, -0.032719, -2.514413

149391561.304328, -0.038932, -0.093268, -0.164651, 0.059555, 0.015516, 0.966453, -15.614031, 12.406661, 57.020664, -0.001861, -0.034250, -2.517774

149391561.305333, 0.000164, -0.121368, -0.187864, 0.014889, -0.015483, 0.997629, -15.582107, 12.302341, 57.111465, -0.002079, -0.035070, -2.518570

149391561.306573, 0.027347, -0.118008, -0.168927, 0.059555, 0.000000, 0.966453, -15.556567, 12.218886, 57.184105, -0.001644, -0.037038, -2.521671

149391561.307401, 0.028569, -0.123201, -0.142660, 0.059555, 0.000000, 0.966453, -15.433455, 12.213346, 57.172245, -0.001346, -0.038530, -2.523762

149391561.308425, 0.026771, -0.100275, -0.112149, 0.059555, 0.000000, 0.966453, -15.334965, 12.208915, 57.162758, -0.001016, -0.039998, -2.525734

149391561.309494, 0.028600, -0.055108, -0.087362, 0.059555, 0.000000, 0.997629, -15.256173, 12.205369, 57.155167, -0.000666, -0.040969, -2.527369

149391561.310494, 0.042649, -0.016871, -0.058912, 0.059555, 0.000000, 0.997629, -15.193139, 12.202533, 57.149094, -0.000217, -0.041508, -2.528605

149391561.311541, 0.053113, 0.013982, -0.017904, 0.074444, 0.015516, 0.966453, -15.163248, 12.179855, 57.190884, 0.000630, -0.042085, -2.530579

149391561.312568, 0.076214, 0.038804, 0.014765, 0.074444, 0.015516, 0.966453, -15.139336, 12.161714, 57.224316, 0.001668, -0.042402, -2.532186

149391561.313614, 0.078658, 0.080343, 0.038283, 0.044666, 0.015516, 1.013217, -15.120206, 12.147201, 57.251060, 0.002730, -0.041617, -2.532606

149391561.314600, 0.107500, 0.120811, 0.077543, 0.044666, 0.015516, 1.013217, -15.125439, 12.155998, 57.295780, 0.003988, -0.040506, -2.532656

149391561.315664, 0.172252, 0.159295, 0.195440, 0.014889, 0.015516, 0.935277, -15.129624, 12.163036, 57.331558, 0.005955, -0.038363, -2.530593

149391561.316658, 0.120023, 0.146162, 0.291957, 0.014889, 0.015516, 0.935277, -15.132974, 12.168667, 57.360180, 0.007230, -0.036510, -2.527760

149391561.317728, -0.080647, -0.022132, 0.245837, 0.104221, -0.092899, 1.184684, -15.156189, 12.213987, 57.359753, 0.004621, -0.037842, -2.523617

149391561.318744, 0.015835, 0.011524, 0.174881, 0.104221, -0.092899, 1.184684, -15.174761, 12.250244, 57.359409, 0.003095, -0.038788, -2.520377

149391561.319782, 0.087001, -0.024517, 0.083862, 0.059555, 0.000000, 0.950865, -15.189618, 12.279249, 57.359135, 0.003875, -0.039514, -2.520351

149391561.320818, 0.122545, 0.020251, 0.028874, 0.059555, 0.000000, 0.950865, -15.098823, 12.424902, 57.312267, 0.005022, -0.039769, -2.520730

149391561.321844, 0.114882, 0.011154, 0.008831, 0.044666, 0.000000, 0.966453, -15.026186, 12.541424, 57.274773, 0.006073, -0.039785, -2.520705

149391561.322869, 0.112463, -0.003732, 0.030472, 0.044666, 0.000000, 0.966453, -14.968077, 12.634642, 57.244778, 0.007069, -0.039952, -2.520361

149391561.323926, 0.105012, 0.015483, 0.042090, 0.044666, 0.000000, 0.982041, -14.921590, 12.709216, 57.220783, 0.008000, -0.039905, -2.519790

149391561.324944, 0.086954, 0.067183, 0.042400, 0.044666, 0.000000, 0.982041, -14.925473, 12.707651, 57.131615, 0.008691, -0.039350, -2.519240

149391561.325952, 0.035190, 0.109722, 0.043002, 0.029778, 0.000000, 0.997629, -14.928579, 12.706399, 57.060280, 0.008846, -0.038083, -2.518199

149391561.326977, 0.017406, 0.112196, 0.056150, 0.029778, 0.000000, 0.997629, -14.931065, 12.705398, 57.003212, 0.008820, -0.036799, -2.517041

149391561.328030, 0.038568, 0.079635, 0.064536, 0.044666, 0.000000, 0.966453, -14.953588, 12.827045, 56.980881, 0.009018, -0.036171, -2.516247

149391561.329049, 0.052108, 0.025035, 0.057795, 0.044666, 0.000000, 0.966453, -14.971608, 12.924364, 56.963017, 0.009338, -0.036127, -2.515498

149391561.330066, 0.066858, -0.018549, 0.038638, 0.029778, 0.000000, 0.966453, -14.986024, 13.002218, 56.948727, 0.009801, -0.036213, -2.514425

149391561.331133, 0.064255, -0.019055, 0.024968, 0.029778, 0.000000, 0.966453, -15.038629, 13.105318, 57.053913, 0.010266, -0.036310, -2.513452

149391561.332152, 0.058716, -0.049152, 0.028927, 0.029778, 0.000000, 0.966453, -15.080712, 13.187798, 57.138065, 0.010634, -0.036698, -2.512439

149391561.333160, 0.045520, -0.081606, 0.050444, 0.044666, 0.015516, 0.997629, -15.114380, 13.253781, 57.205387, 0.011163, -0.037671, -2.512320

149391561.334215, 0.019445, -0.076300, 0.075396, 0.044666, 0.015516, 0.997629, -15.141314, 13.306568, 57.259243, 0.011421, -0.038611, -2.511899

149391561.335229, -0.000399, -0.057650, 0.095037, 0.044666, 0.046549, 0.982041, -15.080715, 13.185533, 57.162384, 0.012093, -0.039364, -2.512866

149391561.336271, 0.015755, -0.035506, 0.081376, 0.044666, 0.046549, 0.982041, -15.032237, 13.088704, 57.084896, 0.012921, -0.039891, -2.513977

149391561.337285, 0.002866, -0.009942, 0.055443, 0.044666, 0.015516, 0.997629, -14.993454, 13.011242, 57.022903, 0.012979, -0.040094, -2.513882

149391561.338357, -0.007062, -0.002257, 0.054874, 0.044666, 0.015516, 0.997629, -14.962428, 13.071721, 57.019958, 0.012932, -0.040219, -2.513700

149391561.339356, -0.008408, 0.008554, 0.068968, 0.059555, 0.015516, 0.982041, -14.937607, 13.120104, 57.017605, 0.012872, -0.040552, -2.513844

149391561.340400, -0.019892, 0.047843, 0.063031, 0.059555, 0.015516, 0.982041, -14.917750, 13.158811, 57.015720, 0.012692, -0.040472, -2.513970

149391561.341425, -0.012596, 0.074344, 0.036588, 0.074444, 0.015516, 0.982041, -14.942937, 13.251000, 57.037537, 0.012593, -0.040435, -2.514725

149391561.342426, -0.016218, 0.064406, 0.023558, 0.074444, 0.015516, 0.982041, -14.963086, 13.324752, 57.054989, 0.012469, -0.040512, -2.515559

149391561.343498, -0.040958, 0.077540, 0.013784, 0.029778, 0.000000, 0.982041, -14.979206, 13.383753, 57.068951, 0.011779, -0.039501, -2.514412

149391561.344488, -0.049365, 0.077702, 0.014690, 0.029778, 0.000000, 0.982041, -14.951030, 13.288097, 57.103443, 0.011054, -0.038570, -2.513347

149391561.345543, -0.034273, 0.085335, 0.011092, 0.029778, 0.000000, 0.982041, -14.928489, 13.211573, 57.131039, 0.010471, -0.037529, -2.512373

149391561.346568, -0.023385, 0.076063, 0.012951, 0.029778, 0.000000, 0.982041, -14.910456, 13.150352, 57.153114, 0.010019, -0.036626, -2.511440

149391561.347617, -0.027378, 0.081638, 0.012380, 0.059555, 0.015516, 0.966453, -14.896029, 13.101377, 57.170776, 0.009842, -0.036289, -2.512208

149391561.348650, -0.038463, 0.103242, 0.006737, 0.059555, 0.015516, 0.966453, -14.925561, 13.123421, 57.068287, 0.009563, -0.035752, -2.513010

149391561.349659, -0.056178, 0.105074, -0.001204, 0.014889, 0.000000, 0.982041, -14.949185, 13.141056, 56.986294, 0.008803, -0.034307, -2.511714

149391561.350737, -0.071141, 0.112430, -0.010747, 0.014889, 0.000000, 0.982041, -14.968085, 13.155164, 56.920700, 0.007868, -0.032740, -2.510545

149391561.351711, -0.043331, 0.096907, -0.002149, -0.000000, 0.031033, 0.950865, -15.003742, 13.207267, 56.914871, 0.007945, -0.031156, -2.510240

149391561.352759, -0.040924, 0.057791, 0.014641, -0.000000, 0.031033, 0.950865, -15.032268, 13.248949, 56.910210, 0.008009, -0.029937, -2.509755

149391561.353784, -0.010992, 0.003424, 0.014030, 0.029778, 0.000000, 0.982041, -15.055088, 13.282295, 56.906479, 0.007734, -0.029914, -2.508855

149391561.354837, 0.032296, -0.024456, 0.014333, 0.029778, 0.000000, 0.982041, -15.114417, 13.329380, 56.880173, 0.007908, -0.030178, -2.507967

149391561.355863, 0.042978, -0.020353, 0.029878, 0.044666, 0.015516, 0.966453, -15.161880, 13.367047, 56.859127, 0.008491, -0.030707, -2.508120

149391561.356885, 0.048353, -0.015140, 0.046890, 0.044666, 0.015516, 0.966453, -15.199850, 13.397182, 56.842289, 0.009108, -0.031174, -2.508097

149391561.357897, 0.049574, 0.005324, 0.041698, -0.000000, -0.030966, 0.950865, -15.230227, 13.380472, 56.828819, 0.008709, -0.030565, -2.504636

149391561.358950, 0.059893, 0.024049, 0.017797, -0.000000, -0.030966, 0.950865, -15.233991, 13.367105, 56.818043, 0.008453, -0.029769, -2.501484

149391561.359948, 0.032918, 0.034008, 0.006658, -0.000000, -0.030966, 0.950865, -15.237002, 13.356412, 56.809422, 0.007913, -0.028901, -2.498523

149391561.361013, 0.035215, 0.057511, 0.009209, 0.014889, 0.000000, 0.950865, -15.239411, 13.347857, 56.802525, 0.008113, -0.028041, -2.497454

149391561.362024, 0.034473, 0.065569, 0.025161, 0.014889, 0.000000, 0.935277, -15.302948, 13.381828, 56.797009, 0.008280, -0.027154, -2.496276

149391561.363070, 0.025376, 0.089903, 0.047954, -0.000000, 0.000000, 0.935277, -15.353777, 13.409006, 56.792595, 0.008343, -0.025700, -2.494323

149391561.364087, -0.027484, 0.077545, 0.087309, -0.000000, 0.000000, 0.935277, -15.394441, 13.430748, 56.789062, 0.007863, -0.024426, -2.492041

149391561.365141, -0.038785, 0.041199, 0.119074, 0.044666, 0.000000, 0.966453, -15.385899, 13.509367, 56.762913, 0.007274, -0.024444, -2.490918

149391561.366166, 0.003892, 0.017607, 0.103710, 0.044666, 0.000000, 0.966453, -15.379066, 13.572262, 56.741993, 0.007141, -0.024710, -2.489959

149391561.367201, -0.007851, 0.018731, 0.074617, 0.014889, 0.000000, 0.982041, -15.373599, 13.622578, 56.725258, 0.006896, -0.024337, -2.488269

149391561.368233, -0.000510, 0.021925, 0.044043, 0.014889, 0.000000, 0.982041, -15.389762, 13.601605, 56.758518, 0.006738, -0.023938, -2.486948

149391561.369251, 0.012059, -0.002158, 0.018597, 0.029778, 0.015516, 0.982041, -15.402692, 13.584827, 56.785126, 0.007034, -0.024089, -2.487102

149391561.370279, -0.020188, -0.007195, 0.032857, 0.029778, 0.015516, 0.982041, -15.413035, 13.571405, 56.806412, 0.006997, -0.024290, -2.487124

149391561.371322, -0.064315, -0.013323, 0.047414, 0.029778, 0.015516, 0.982041, -15.421310, 13.560668, 56.823441, 0.006503, -0.024552, -2.487006

149391561.372316, -0.054290, -0.016331, 0.043127, 0.029778, 0.015516, 0.982041, -15.407394, 13.592895, 56.767094, 0.006148, -0.024830, -2.486921

149391561.373352, -0.032814, -0.018380, 0.030558, 0.029778, 0.000000, 0.982041, -15.396262, 13.618675, 56.722015, 0.005686, -0.025129, -2.486259

149391561.374412, -0.019266, -0.037727, 0.028420, 0.029778, 0.000000, 0.982041, -15.387356, 13.639300, 56.685951, 0.005365, -0.025627, -2.485607

149391561.375438, -0.028728, -0.025869, 0.030213, 0.029778, 0.000000, 0.982041, -15.380231, 13.635392, 56.727074, 0.004962, -0.025983, -2.484957

149391561.376466, -0.044867, -0.014561, 0.039743, 0.029778, 0.000000, 0.982041, -15.374531, 13.632265, 56.759972, 0.004401, -0.026219, -2.484223

149391561.377490, -0.061564, 0.005480, 0.050867, 0.044666, 0.000000, 0.966453, -15.369971, 13.629764, 56.786289, 0.003680, -0.026565, -2.483885

149391561.378530, -0.052195, 0.002973, 0.049198, 0.044666, 0.000000, 0.966453, -15.427932, 13.627763, 56.714046, 0.003059, -0.026929, -2.483593

149391561.379567, -0.044518, 0.001714, 0.044275, 0.059555, 0.000000, 0.966453, -15.474300, 13.626162, 56.656254, 0.002522, -0.027604, -2.483825

149391561.380593, -0.036704, 0.000482, 0.042446, 0.059555, 0.000000, 0.966453, -15.511395, 13.624881, 56.610020, 0.002079, -0.028278, -2.484094

149391561.381605, -0.013207, -0.024046, 0.034376, 0.044666, 0.015516, 0.950865, -15.479463, 13.521815, 56.619678, 0.002214, -0.028897, -2.484755

149391561.382651, -0.007248, -0.032809, 0.031560, 0.044666, 0.015516, 0.950865, -15.453917, 13.439363, 56.627407, 0.002403, -0.029602, -2.485470

149391561.383668, -0.004105, -0.051554, 0.031792, 0.044666, 0.000000, 0.982041, -15.433479, 13.373402, 56.633591, 0.002302, -0.030434, -2.485492

149391561.384705, -0.037806, -0.101299, -0.006252, 0.044666, 0.000000, 0.982041, -15.417130, 13.320632, 56.638538, 0.001871, -0.031763, -2.485925

149391561.385731, -0.121189, -0.069534, -0.379186, 0.029778, 0.046549, 0.997629, -15.424586, 13.380457, 56.689144, 0.001673, -0.032459, -2.491663

149391561.386817, 0.135680, 0.020874, -0.691032, 0.029778, 0.046549, 0.997629, -15.430552, 13.428317, 56.729626, 0.004255, -0.032200, -2.500796

149391561.387827, 0.052602, -0.016999, -0.365136, 0.029778, -0.015483, 0.997629, -15.435324, 13.466605, 56.762012, 0.004496, -0.032317, -2.503276

149391561.388831, 0.004850, 0.012362, -0.148745, 0.029778, -0.015483, 0.997629, -15.377533, 13.476828, 56.811249, 0.004189, -0.032151, -2.503514

149391561.389885, 0.027772, -0.016005, -0.063986, 0.029778, -0.015483, 0.997629, -15.331300, 13.485005, 56.850636, 0.004102, -0.032280, -2.502913

149391561.390894, -0.015870, 0.004963, -0.046493, 0.059555, 0.015516, 0.997629, -15.294313, 13.491548, 56.882145, 0.004176, -0.032780, -2.504265

149391561.391944, -0.063376, 0.003962, -0.050298, 0.059555, 0.015516, 0.997629, -15.264725, 13.476374, 56.884029, 0.003757, -0.033279, -2.505644

149391561.392981, -0.090148, -0.013763, -0.063292, 0.044666, 0.000000, 0.982041, -15.241054, 13.464234, 56.885536, 0.002788, -0.033661, -2.506061

149391561.393982, -0.099911, -0.035898, -0.071827, 0.044666, 0.000000, 0.982041, -15.222116, 13.454523, 56.886742, 0.001778, -0.034247, -2.506528

149391561.395019, -0.100499, -0.009428, -0.083770, 0.044666, -0.015483, 0.950865, -15.206967, 13.405937, 56.911030, 0.000430, -0.034603, -2.506554

149391561.396045, -0.081340, -0.003848, -0.083800, 0.044666, -0.015483, 0.950865, -15.276993, 13.367069, 56.930462, -0.000688, -0.034894, -2.506635

149391561.397132, -0.037767, -0.034863, -0.077850, 0.014889, 0.000000, 0.982041, -15.333014, 13.335975, 56.946007, -0.001058, -0.034871, -2.506386

149391561.398156, -0.003783, -0.103797, -0.061859, 0.014889, 0.000000, 0.982041, -15.377830, 13.311099, 56.958443, -0.001064, -0.035519, -2.505978

149391561.399144, 0.005075, -0.186874, -0.055445, 0.029778, -0.015483, 0.950865, -15.331537, 13.270790, 56.898418, -0.001303, -0.037252, -2.505366

149391561.400175, 0.035924, -0.181376, -0.046587, 0.029778, -0.015483, 0.950865, -15.294503, 13.238543, 56.850399, -0.001226, -0.038975, -2.504700

149391561.401187, 0.068357, -0.119252, -0.034543, 0.029778, 0.000000, 0.982041, -15.264876, 13.212745, 56.811985, -0.000512, -0.039985, -2.504555

149391561.402245, 0.066917, -0.020164, -0.010494, 0.029778, 0.000000, 0.982041, -15.241175, 13.192106, 56.897873, 0.000194, -0.040001, -2.504182

149391561.403256, 0.051755, 0.085210, 0.014843, 0.044666, 0.000000, 0.997629, -15.222214, 13.175596, 56.966583, 0.000697, -0.039252, -2.504015

149391561.404308, 0.055449, 0.118699, 0.024398, 0.044666, 0.000000, 0.997629, -15.207045, 13.162388, 57.021549, 0.001245, -0.038137, -2.503748

149391561.405308, 0.039872, 0.145882, 0.005767, 0.089333, 0.015516, 0.997629, -15.235982, 13.192637, 56.995552, 0.001872, -0.037743, -2.505527

149391561.406346, -0.011135, 0.179174, -0.170163, 0.089333, 0.015516, 0.997629, -15.259131, 13.216837, 56.974754, 0.002049, -0.036960, -2.509051

149391561.407384, -0.056339, 0.174593, -0.610902, -0.015630, -0.061933, 1.044393, -15.277652, 13.236197, 56.958115, 0.000366, -0.034276, -2.510793

149391561.408396, -0.000140, 0.192613, -0.490867, -0.015630, -0.061933, 1.044393, -15.292468, 13.251684, 56.944805, -0.000766, -0.031517, -2.511163

149391561.409445, 0.079578, 0.052114, 0.490183, 0.029778, 0.031033, 0.982041, -15.345393, 13.243667, 57.004128, 0.000542, -0.030968, -2.506927

149391561.410470, 0.102791, 0.075633, 0.640150, 0.029778, 0.031033, 0.982041, -15.387733, 13.237252, 57.051586, 0.001999, -0.030217, -2.501412

149391561.411514, 0.162656, -0.011416, 0.395193, 0.044666, 0.000000, 0.966453, -15.421606, 13.232121, 57.089554, 0.003498, -0.030663, -2.497516

149391561.412534, 0.177622, 0.025542, 0.331969, 0.044666, 0.000000, 0.966453, -15.448704, 13.309649, 57.003307, 0.005100, -0.030732, -2.494377

149391561.413594, 0.152271, 0.019128, 0.326776, 0.089333, 0.046549, 0.950865, -15.470382, 13.371671, 56.934311, 0.007340, -0.031881, -2.494480

149391561.414572, 0.089352, 0.006605, 0.201854, 0.089333, 0.046549, 0.950865, -15.487724, 13.421288, 56.879112, 0.008856, -0.033134, -2.496006

149391561.415609, 0.047106, 0.034273, 0.032256, 0.104221, 0.046549, 0.982041, -15.542671, 13.460982, 56.858276, 0.009961, -0.034302, -2.499281

149391561.416635, 0.026679, 0.075412, -0.104170, 0.104221, 0.046549, 0.982041, -15.586629, 13.492738, 56.841610, 0.010884, -0.035020, -2.503854

149391561.417660, 0.023319, 0.069303, -0.316140, 0.104221, 0.046549, 0.982041, -15.621795, 13.518142, 56.828278, 0.011836, -0.035757, -2.510459

149391561.418731, 0.015989, 0.010966, -0.411741, -0.000000, 0.000000, 0.919689, -15.608854, 13.599689, 56.794285, 0.011890, -0.034887, -2.513065

149391561.419760, -0.022022, 0.011931, -0.216196, -0.000000, 0.000000, 0.919689, -15.598502, 13.664927, 56.767094, 0.011474, -0.034054, -2.513424

149391561.420797, -0.030828, -0.007158, -0.085764, 0.029778, 0.000000, 0.950865, -15.590220, 13.717118, 56.745338, 0.010960, -0.034066, -2.513485

149391561.421822, -0.034066, -0.040794, -0.013095, 0.029778, 0.000000, 0.950865, -15.583595, 13.758871, 56.727936, 0.010402, -0.034424, -2.512774

149391561.422860, -0.029179, 0.001356, 0.175051, 0.044666, -0.015483, 0.997629, -15.598831, 13.710640, 56.737335, 0.009530, -0.034646, -2.510008

149391561.423956, -0.074383, 0.041367, 0.357395, 0.044666, -0.015483, 0.997629, -15.611020, 13.672055, 56.744858, 0.008103, -0.034448, -2.505269

149391561.424873, -0.196556, 0.093902, 0.309442, 0.074444, 0.031033, 0.982041, -15.620771, 13.641188, 56.750874, 0.006668, -0.034472, -2.504456

149391561.425948, -0.327281, 0.132386, 0.080367, 0.074444, 0.031033, 0.982041, -15.628572, 13.636902, 56.779011, 0.003645, -0.033932, -2.505600

149391561.426961, -0.310177, 0.116809, -0.128243, -0.000000, -0.015483, 0.919689, -15.634813, 13.633473, 56.801521, 0.000162, -0.032112, -2.504570

149391561.427998, -0.221601, 0.035564, -0.198493, -0.000000, -0.015483, 0.919689, -15.639806, 13.630731, 56.819530, -0.002402, -0.031127, -2.504313

149391561.429021, -0.225877, 0.050225, -0.377782, 0.014889, -0.030966, 0.982041, -15.746482, 13.444862, 56.810612, -0.005147, -0.030347, -2.505996

149391561.430049, -0.221296, 0.029150, -0.639843, 0.014889, -0.030966, 0.982041, -15.831822, 13.296168, 56.803478, -0.007724, -0.029814, -2.510458

149391561.431087, -0.189531, 0.060609, -0.658780, 0.014889, 0.000000, 0.966453, -15.900095, 13.177213, 56.797771, -0.009306, -0.028964, -2.516474

149391561.432125, -0.144021, 0.030982, -0.550962, 0.014889, 0.000000, 0.966453, -15.954713, 13.082048, 56.793205, -0.010428, -0.028429, -2.521368

149391561.433123, -0.111340, 0.026096, -0.443144, 0.029778, -0.030966, 0.982041, -15.998407, 13.005917, 56.789551, -0.011814, -0.028274, -2.524190

149391561.434274, -0.073161, 0.014184, -0.293177, 0.029778, -0.030966, 0.982041, -16.033363, 12.945011, 56.786629, -0.012938, -0.028210, -2.525988

149391561.435217, -0.056671, -0.007643, -0.205676, -0.000000, -0.030966, 0.982041, -16.061327, 12.896287, 56.784290, -0.013815, -0.027764, -2.525385

149391561.436216, -0.064747, 0.001488, -0.136462, -0.000000, -0.030966, 0.982041, -16.124771, 12.673635, 56.829071, -0.014797, -0.027233, -2.524421

149391561.437287, -0.128582, 0.039362, -0.048498, 0.014889, 0.015516, 0.950865, -16.175526, 12.495512, 56.864895, -0.015508, -0.026603, -2.525372

149391561.438312, -0.150692, 0.054679, 0.020696, 0.014889, 0.015516, 0.950865, -16.216129, 12.353014, 56.893555, -0.016388, -0.025841, -2.525726

149391561.439372, -0.131145, 0.013751, 0.013060, 0.029778, -0.030966, 0.966453, -16.248613, 12.157383, 56.916481, -0.018064, -0.025801, -2.524697

149391561.440337, -0.091008, 0.018246, -0.041334, 0.029778, -0.030966, 0.966453, -16.274601, 12.000878, 56.934822, -0.019192, -0.025740, -2.524339

149391561.441413, -0.060388, 0.030121, -0.079335, 0.014889, 0.000000, 0.982041, -16.295391, 11.875675, 56.949493, -0.019422, -0.025230, -2.525420

149391561.442400, -0.048054, 0.024104, -0.119824, 0.014889, 0.000000, 0.982041, -16.312023, 11.714288, 56.984554, -0.019468, -0.024821, -2.526937

149391561.443450, -0.034004, 0.043958, -0.186408, 0.148888, 0.341360, 0.576754, -16.325329, 11.585178, 57.012604, -0.012386, -0.034223, -2.551316

149391561.444511, -0.026674, 0.039681, -0.268264, 0.148888, 0.341360, 0.576754, -16.335972, 11.481891, 57.035042, -0.005114, -0.043309, -2.576199

149391561.445493, -0.004377, 0.063505, -0.295447, 0.148888, -0.092899, 0.935277, -16.344486, 11.399261, 57.052994, -0.006863, -0.045020, -2.578473

149391561.446555, 0.009367, 0.014636, -0.197709, -0.015630, -0.092899, 0.935277, -16.453981, 11.292340, 57.090679, -0.008667, -0.043898, -2.575196

149391561.447588, 0.001097, -0.029027, -0.050026, -0.015630, -0.092899, 0.935277, -16.541576, 11.206803, 57.120827, -0.010586, -0.043219, -2.570534

149391561.448589, 0.012093, -0.058044, 0.020529, 0.014889, 0.077582, 0.950865, -16.611652, 11.138374, 57.144947, -0.008582, -0.043433, -2.574710

149391561.449686, 0.020808, -0.051141, 0.006044, 0.014889, 0.077582, 0.950865, -16.667713, 11.063223, 57.140919, -0.006507, -0.043620, -2.579036

149391561.450639, 0.018976, -0.010213, -0.044658, 0.014889, 0.000000, 0.982041, -16.712563, 11.003101, 57.137695, -0.006180, -0.043150, -2.579519

149391561.451719, 0.005121, 0.023790, -0.064947, 0.014889, 0.000000, 0.982041, -16.748442, 10.955004, 57.135117, -0.005971, -0.042342, -2.580323

149391561.452702, 0.013086, 0.019402, -0.055207, -0.000000, 0.000000, 0.982041, -16.777145, 10.875710, 57.109730, -0.005709, -0.041311, -2.580581

149391561.453752, 0.021482, -0.032435, -0.055839, -0.000000, 0.000000, 0.982041, -16.800108, 10.812275, 57.089420, -0.005355, -0.040821, -2.580940

149391561.454776, 0.031794, -0.040124, -0.082770, 0.044666, 0.000000, 0.982041, -16.818478, 10.761527, 57.073174, -0.004897, -0.041324, -2.582850

149391561.455813, 0.033217, -0.018648, -0.143220, 0.044666, 0.000000, 0.982041, -16.771564, 10.639296, 57.130146, -0.004403, -0.041605, -2.585427

149391561.456848, 0.029247, 0.005481, -0.231490, -0.000000, -0.015483, 0.982041, -16.734034, 10.541511, 57.175724, -0.004255, -0.040733, -2.586900

149391561.457876, 0.016073, -0.006296, -0.185653, -0.000000, -0.015483, 0.982041, -16.704010, 10.463283, 57.212185, -0.004265, -0.039994, -2.587912

149391561.458926, 0.007363, -0.004967, -0.092941, 0.014889, -0.030966, 0.982041, -16.679991, 10.400701, 57.241356, -0.004710, -0.039568, -2.587781

149391561.459951, 0.002423, -0.002172, -0.008460, 0.014889, -0.030966, 0.982041, -16.681311, 10.432267, 57.241367, -0.005232, -0.039116, -2.586757

149391561.460965, 0.005063, 0.005050, 0.076037, 0.029778, -0.030966, 0.997629, -16.682367, 10.457520, 57.241379, -0.005730, -0.038884, -2.585350

149391561.462020, -0.031820, 0.014512, 0.120782, 0.029778, -0.030966, 0.997629, -16.683212, 10.477723, 57.241386, -0.006616, -0.038553, -2.583464

149391561.463028, -0.073908, 0.025270, 0.149335, 0.044666, 0.000000, 1.013217, -16.766033, 10.493885, 57.218071, -0.007274, -0.038407, -2.583177

149391561.464079, -0.107505, 0.037792, 0.162469, 0.044666, 0.000000, 1.013217, -16.832291, 10.506815, 57.199417, -0.008303, -0.038123, -2.582719

149391561.465124, -0.083116, 0.053143, 0.133334, 0.014889, 0.000000, 0.982041, -16.885296, 10.517159, 57.184494, -0.009034, -0.037110, -2.581839

149391561.466127, -0.023061, 0.054715, 0.106906, 0.014889, 0.000000, 0.982041, -16.866091, 10.464209, 57.149231, -0.009113, -0.036126, -2.581326

149391561.467200, 0.016594, 0.020972, 0.072064, 0.014889, 0.015516, 0.997629, -16.850727, 10.421849, 57.121021, -0.008458, -0.035491, -2.581902

149391561.468210, 0.027607, -0.048240, 0.045730, 0.014889, 0.015516, 0.997629, -16.838436, 10.387961, 57.098454, -0.007707, -0.035569, -2.582789

149391561.469229, -0.013016, -0.051905, 0.053060, -0.000000, -0.046450, 0.950865, -16.828604, 10.360851, 57.080399, -0.008715, -0.035414, -2.580162

149391561.470275, -0.024403, -0.046029, 0.053139, -0.000000, -0.046450, 0.950865, -16.820738, 10.298347, 57.112602, -0.009821, -0.035212, -2.577614

149391561.471292, 0.004613, -0.027397, 0.077268, 0.029778, -0.046450, 0.997629, -16.814445, 10.248344, 57.138367, -0.010539, -0.035385, -2.575940

149391561.472336, -0.037942, 0.000090, 0.116904, 0.029778, -0.046450, 0.997629, -16.809412, 10.208342, 57.158978, -0.011691, -0.035274, -2.573903

149391561.473354, -0.063755, 0.017729, 0.111453, 0.029778, -0.015483, 0.982041, -16.764313, 10.237564, 57.152142, -0.012447, -0.034983, -2.573300

149391561.474354, -0.105768, 0.045462, 0.088774, 0.029778, -0.015483, 0.982041, -16.728233, 10.260942, 57.146675, -0.013579, -0.034433, -2.572919

149391561.475424, -0.165633, 0.087612, 0.077473, 0.029778, -0.015483, 0.982041, -16.699369, 10.279644, 57.142300, -0.015385, -0.033420, -2.572583

149391561.476430, -0.187013, 0.109297, 0.071059, 0.029778, 0.000000, 0.982041, -16.717350, 10.192565, 57.162125, -0.016942, -0.032280, -2.573182

149391561.477472, -0.179682, 0.117850, 0.071365, 0.029778, 0.000000, 0.982041, -16.731735, 10.122902, 57.177982, -0.018461, -0.031037, -2.573810

149391561.478487, -0.150361, 0.095248, 0.069532, -0.000000, 0.000000, 0.950865, -16.743242, 10.067171, 57.190670, -0.019599, -0.029461, -2.573671

149391561.479517, -0.116697, 0.022379, 0.056706, -0.000000, 0.000000, 0.950865, -16.793522, 10.002178, 57.154175, -0.020393, -0.028641, -2.573724

149391561.480564, -0.079556, 0.002173, 0.045645, 0.029778, -0.030966, 0.966453, -16.833746, 9.950184, 57.124977, -0.021455, -0.028652, -2.573313

149391561.481568, -0.038413, -0.003254, 0.033322, 0.029778, -0.030966, 0.966453, -16.865925, 9.908588, 57.101620, -0.022054, -0.028719, -2.573098

149391561.482612, -0.004116, 0.006681, 0.036209, -0.000000, -0.046450, 0.950865, -16.891668, 9.875313, 57.082932, -0.022663, -0.028087, -2.571236

149391561.483631, -0.001039, 0.028667, 0.043220, -0.000000, -0.046450, 0.950865, -16.912262, 9.787467, 57.161278, -0.023226, -0.027247, -2.569432

149391561.484680, -0.000120, 0.023279, 0.044404, 0.014889, -0.061933, 0.966453, -16.928738, 9.717191, 57.223957, -0.024063, -0.026788, -2.567541

149391561.485722, 0.037855, 0.005746, 0.024931, 0.014889, -0.061933, 0.966453, -16.941917, 9.660970, 57.274097, -0.024489, -0.026522, -2.565933

149391561.486718, 0.072980, 0.011549, 0.018822, -0.031260, -0.015483, 0.950865, -16.931925, 9.595585, 57.220917, -0.023637, -0.025215, -2.565061

149391561.487750, 0.113005, -0.001850, 0.009456, -0.031260, -0.015483, 0.950865, -16.923931, 9.543277, 57.178371, -0.022368, -0.024068, -2.564335

149391561.488772, 0.162180, 0.007007, -0.008259, 0.029778, -0.030966, 0.982041, -16.917536, 9.501431, 57.144333, -0.020927, -0.024121, -2.565062

149391561.489844, 0.178201, -0.005100, -0.014664, 0.029778, -0.030966, 0.982041, -16.891884, 9.569994, 57.070454, -0.019265, -0.024298, -2.565779

149391561.490860, 0.186110, -0.004395, -0.020036, 0.029778, -0.030966, 0.966453, -16.871363, 9.624845, 57.011353, -0.017663, -0.024471, -2.566466

149391561.491869, 0.201687, -0.007144, -0.020647, 0.029778, -0.030966, 0.966453, -16.854944, 9.668725, 56.964069, -0.015953, -0.024668, -2.567102

149391561.492901, 0.203214, -0.012336, -0.017287, 0.029778, 0.000000, 0.935277, -16.841810, 9.683422, 57.019539, -0.013581, -0.024951, -2.569184

149391561.493932, 0.162458, -0.016860, 0.005502, 0.029778, 0.000000, 0.935277, -16.892912, 9.695179, 57.063915, -0.011676, -0.025269, -2.571008

149391561.494982, 0.107310, -0.010824, 0.035884, 0.029778, -0.015483, 0.966453, -16.933794, 9.704585, 57.099415, -0.010671, -0.025484, -2.571711

149391561.496037, 0.071862, -0.002523, 0.049481, 0.029778, -0.015483, 0.966453, -16.966499, 9.712110, 57.127815, -0.010051, -0.025608, -2.572268

149391561.497045, 0.070947, -0.023400, 0.052027, -0.000000, -0.015483, 0.997629, -16.910519, 9.820169, 57.150536, -0.009471, -0.025322, -2.571849

149391561.498090, 0.067958, -0.042343, 0.059603, -0.000000, -0.015483, 0.997629, -16.865734, 9.906618, 57.168713, -0.008911, -0.025244, -2.571242

149391561.499108, 0.053970, -0.076136, 0.068514, -0.000000, -0.015483, 0.982041, -16.829906, 9.975777, 57.183254, -0.008529, -0.025492, -2.570483

149391561.500150, 0.028913, -0.089184, 0.076640, -0.000000, -0.015483, 0.982041, -16.780708, 10.010695, 57.101593, -0.008400, -0.025888, -2.569583

149391561.501165, 0.015148, -0.088802, 0.086389, 0.014889, -0.015483, 0.950865, -16.741348, 10.038630, 57.036263, -0.008428, -0.026558, -2.569026

149391561.502170, 0.007952, -0.075869, 0.087859, 0.014889, -0.015483, 0.950865, -16.709862, 10.060979, 56.983997, -0.008528, -0.027079, -2.568441

149391561.503254, 0.007952, -0.059986, 0.093968, 0.014889, -0.015483, 1.013217, -16.684671, 10.180899, 57.035480, -0.008605, -0.027459, -2.567644

149391561.504271, -0.001185, -0.053342, 0.099764, 0.014889, -0.015483, 1.013217, -16.664520, 10.276834, 57.076668, -0.008777, -0.027726, -2.566779

149391561.505288, 0.017079, -0.031288, 0.071949, 0.014889, -0.015483, 1.013217, -16.648399, 10.353582, 57.109619, -0.008756, -0.027771, -2.566139

149391561.506337, 0.040640, -0.030630, 0.060567, 0.014889, -0.015483, 0.997629, -16.635502, 10.414981, 57.135979, -0.008490, -0.027823, -2.565545

149391561.507359, 0.046362, -0.031181, 0.055106, 0.014889, -0.015483, 0.997629, -16.604647, 10.341651, 57.110420, -0.008182, -0.027873, -2.565078

149391561.508391, 0.056748, -0.029627, 0.054544, 0.044666, 0.000000, 0.966453, -16.579964, 10.282987, 57.089973, -0.007475, -0.028540, -2.566217

149391561.509408, 0.078577, -0.022127, 0.053097, 0.044666, 0.000000, 0.966453, -16.560217, 10.236055, 57.073616, -0.006572, -0.029115, -2.567387

149391561.510433, 0.083799, -0.000432, 0.053175, 0.044666, -0.015483, 0.966453, -16.523884, 10.341368, 56.990559, -0.005942, -0.029453, -2.567703

149391561.511503, 0.076055, 0.006156, 0.052055, 0.044666, -0.015483, 0.966453, -16.494816, 10.425617, 56.924110, -0.005368, -0.029716, -2.567922

149391561.512526, 0.072390, -0.009422, 0.054804, -0.000000, 0.000000, 0.982041, -16.471561, 10.493017, 56.870953, -0.004550, -0.029214, -2.567503

149391561.513518, 0.067278, -0.020585, 0.057538, -0.000000, 0.000000, 0.982041, -16.432423, 10.628570, 56.921722, -0.003821, -0.028827, -2.566943

149391561.514585, 0.063171, -0.037195, 0.060811, 0.014889, 0.000000, 0.997629, -16.401112, 10.737011, 56.962337, -0.003100, -0.028937, -2.566663

149391561.515585, 0.048984, -0.071395, 0.060129, 0.014889, 0.000000, 0.997629, -16.376062, 10.823765, 56.994831, -0.002573, -0.029355, -2.566350

149391561.516628, 0.040178, -0.069892, 0.066637, -0.000000, -0.015483, 0.982041, -16.356024, 10.852351, 56.974178, -0.002460, -0.029488, -2.564708

149391561.517635, 0.035146, -0.077989, 0.095135, -0.000000, -0.015483, 0.982041, -16.339993, 10.875220, 56.957653, -0.002421, -0.029671, -2.562815

149391561.518668, 0.019456, -0.060500, 0.087451, 0.014889, 0.000000, 0.966453, -16.327168, 10.893516, 56.944435, -0.002200, -0.029997, -2.562213

149391561.519735, 0.021140, -0.042482, 0.067071, 0.014889, 0.000000, 0.966453, -16.316908, 10.908152, 56.933861, -0.001954, -0.030148, -2.561791

149391561.520735, -0.001132, -0.005109, 0.070443, 0.014889, -0.015483, 0.966453, -16.206018, 10.981086, 56.995373, -0.002272, -0.029905, -2.560529

149391561.521789, 0.004871, -0.012776, 0.061784, 0.014889, -0.015483, 0.966453, -16.117306, 11.039433, 57.044582, -0.002520, -0.029750, -2.559249

149391561.522816, 0.016131, -0.007125, 0.056597, 0.014889, 0.000000, 0.997629, -16.046335, 11.086110, 57.083950, -0.002324, -0.029524, -2.558713

149391561.523832, 0.019080, 0.006779, 0.051817, 0.014889, 0.000000, 0.997629, -15.948487, 11.184677, 57.092121, -0.002103, -0.029164, -2.558107

149391561.524861, 0.018679, 0.016504, 0.054015, 0.029778, 0.000000, 0.966453, -15.870209, 11.263531, 57.098656, -0.001889, -0.029029, -2.557857

149391561.525898, 0.018883, 0.014960, 0.053177, 0.029778, 0.000000, 0.966453, -15.807586, 11.326613, 57.103886, -0.001675, -0.028912, -2.557533

149391561.526936, 0.018578, -0.002755, 0.055315, 0.074444, 0.000000, 0.997629, -15.819097, 11.377079, 57.131393, -0.001499, -0.029851, -2.558317

149391561.527936, 0.025064, -0.013162, 0.051759, 0.074444, 0.000000, 0.997629, -15.828305, 11.417452, 57.153400, -0.001268, -0.030872, -2.559114

149391561.528982, 0.034702, -0.007503, 0.046483, 0.044666, 0.000000, 0.997629, -15.835672, 11.449750, 57.171005, -0.000905, -0.031226, -2.559143

149391561.529999, 0.042344, 0.003419, 0.045205, 0.044666, 0.000000, 0.997629, -15.841566, 11.393955, 57.185089, -0.000482, -0.031462, -2.559244

149391561.531062, 0.051812, -0.004828, 0.047649, 0.029778, 0.000000, 0.950865, -15.825745, 11.349319, 57.149708, 0.000051, -0.031509, -2.558943

149391561.532092, 0.056403, 0.006935, 0.043357, 0.029778, 0.000000, 0.950865, -15.813087, 11.313611, 57.121403, 0.000606, -0.031435, -2.558728

149391561.533103, 0.065979, 0.016656, 0.038557, 0.029778, 0.000000, 0.950865, -15.802961, 11.285045, 57.098759, 0.001236, -0.031268, -2.558591

149391561.534155, 0.072393, 0.026125, 0.038862, -0.000000, 0.015516, 0.997629, -15.794861, 11.364232, 57.057320, 0.002255, -0.030374, -2.558141

149391561.535188, 0.072663, 0.026472, 0.031765, -0.000000, 0.015516, 0.997629, -15.788381, 11.427583, 57.024166, 0.003245, -0.029499, -2.557720

149391561.536224, 0.051997, 0.029502, 0.032890, 0.014889, 0.000000, 0.982041, -15.783196, 11.478263, 56.997646, 0.003696, -0.028914, -2.556988

149391561.537254, 0.033262, 0.034861, 0.042065, 0.014889, 0.000000, 0.982041, -15.799585, 11.620848, 57.023079, 0.003942, -0.028290, -2.556073

149391561.538250, 0.017910, 0.029941, 0.038488, 0.029778, 0.015516, 0.997629, -15.812696, 11.734916, 57.043423, 0.004338, -0.028034, -2.556316

149391561.539307, 0.021420, 0.012567, 0.037977, 0.029778, 0.015516, 0.997629, -15.823185, 11.826170, 57.059700, 0.004773, -0.027944, -2.556467

149391561.540342, 0.019474, 0.009611, 0.041962, 0.044666, 0.000000, 0.982041, -15.790504, 11.858357, 57.002747, 0.004861, -0.028199, -2.556277

149391561.541338, 0.008300, 0.018678, 0.042274, 0.044666, 0.000000, 0.982041, -15.764358, 11.884108, 56.957184, 0.004831, -0.028363, -2.556069

149391561.542368, -0.005629, 0.021574, 0.046168, 0.029778, 0.015516, 0.966453, -15.743442, 11.904707, 56.920734, 0.004985, -0.028199, -2.556094

149391561.543426, -0.000726, 0.026801, 0.046691, 0.029778, 0.015516, 0.966453, -15.726708, 11.921186, 56.891575, 0.005184, -0.027978, -2.556078

149391561.544439, 0.002279, 0.022947, 0.038532, 0.059555, 0.000000, 0.935277, -15.651713, 11.893554, 56.891571, 0.005081, -0.028462, -2.556330

149391561.545501, 0.001035, 0.018278, 0.033834, 0.059555, 0.000000, 0.935277, -15.591717, 11.871448, 56.891567, 0.004970, -0.028975, -2.556596

149391561.546488, -0.007957, 0.008026, 0.031627, 0.044666, 0.000000, 0.966453, -15.543719, 11.853763, 56.891567, 0.004783, -0.029243, -2.556422

149391561.547526, -0.020945, 0.000382, 0.024383, 0.044666, 0.000000, 0.966453, -15.525858, 11.900840, 56.891567, 0.004467, -0.029578, -2.556263

149391561.548576, -0.027979, -0.002018, 0.020580, 0.044666, 0.000000, 0.966453, -15.511569, 11.938501, 56.891567, 0.004083, -0.029932, -2.556108

149391561.549634, -0.022905, -0.006460, 0.015961, 0.044666, 0.000000, 0.966453, -15.500137, 11.968631, 56.891567, 0.003758, -0.030324, -2.555973

149391561.550678, -0.017639, 0.004440, 0.008150, 0.014889, 0.000000, 0.950865, -15.552602, 12.013142, 56.938213, 0.003494, -0.029988, -2.554981

149391561.551677, -0.011587, 0.012419, -0.000394, 0.014889, 0.000000, 0.950865, -15.594573, 12.048751, 56.975533, 0.003304, -0.029581, -2.554093

149391561.552707, -0.000280, 0.020231, -0.015335, 0.044666, 0.000000, 0.966453, -15.628150, 12.077238, 57.005386, 0.003240, -0.029708, -2.554302

149391561.553714, -0.000573, 0.023393, -0.024581, 0.044666, 0.000000, 0.966453, -15.572866, 12.079619, 56.959297, 0.003176, -0.029805, -2.554565

149391561.554748, -0.020893, 0.022602, -0.034229, 0.029778, -0.015483, 0.982041, -15.528640, 12.081525, 56.922424, 0.002597, -0.029596, -2.553747

149391561.555770, -0.011483, 0.021229, -0.040087, 0.029778, -0.015483, 0.982041, -15.493258, 12.083049, 56.892929, 0.002127, -0.029407, -2.552979

149391561.556807, -0.002931, 0.015120, -0.051693, 0.059555, -0.046450, 0.950865, -15.464953, 12.084269, 56.869331, 0.001120, -0.029952, -2.552001

149391561.557865, 0.001616, 0.021081, -0.060173, 0.059555, -0.046450, 0.950865, -15.544991, 12.207693, 56.873775, 0.000183, -0.030420, -2.551102

149391561.558865, 0.022213, 0.030803, -0.067876, 0.059555, -0.015483, 0.966453, -15.609020, 12.306433, 56.877331, 0.000102, -0.030743, -2.551459

149391561.559899, 0.032509, 0.046600, -0.073623, 0.059555, -0.015483, 0.966453, -15.660244, 12.385425, 56.880177, 0.000137, -0.030890, -2.551859

149391561.560941, 0.032423, 0.058775, -0.087322, 0.059555, -0.015483, 0.966453, -15.680687, 12.387394, 56.882454, 0.000178, -0.030905, -2.552406

149391561.561978, 0.025162, 0.061724, -0.092062, 0.029778, 0.000000, 0.966453, -15.697042, 12.388969, 56.884274, 0.000459, -0.030275, -2.552774

149391561.563020, 0.009384, 0.064909, -0.091918, 0.029778, 0.000000, 0.966453, -15.710125, 12.390229, 56.885731, 0.000574, -0.029623, -2.553143

149391561.564016, -0.001578, 0.068327, -0.086096, 0.014889, 0.000000, 0.966453, -15.700055, 12.411646, 56.863571, 0.000565, -0.028671, -2.552896

149391561.565054, -0.017093, 0.067486, -0.085180, 0.014889, 0.000000, 0.966453, -15.691999, 12.428779, 56.845844, 0.000397, -0.027720, -2.552663

149391561.566094, -0.035271, 0.064570, -0.085779, 0.014889, 0.000000, 0.966453, -15.685555, 12.442485, 56.831665, 0.000047, -0.026815, -2.552428

149391561.567113, -0.035426, 0.062015, -0.079488, 0.014889, 0.000000, 0.966453, -15.721472, 12.473858, 56.820320, -0.000292, -0.025967, -2.552114

149391561.568141, -0.040361, 0.060710, -0.076021, 0.014889, 0.000000, 0.982041, -15.750206, 12.498957, 56.811245, -0.000679, -0.025139, -2.551768

149391561.569179, -0.043697, 0.063019, -0.064254, 0.014889, 0.000000, 0.982041, -15.773193, 12.519035, 56.803986, -0.001099, -0.024299, -2.551315

149391561.570210, -0.045468, 0.050331, -0.054529, 0.014889, 0.000000, 0.982041, -15.791583, 12.535098, 56.798176, -0.001528, -0.023608, -2.550766

149391561.571241, -0.039129, 0.037311, -0.046803, 0.014889, 0.000000, 0.982041, -15.826831, 12.486724, 56.840179, -0.001886, -0.023062, -2.550208

149391561.572292, -0.042790, 0.039216, -0.031466, -0.000000, 0.000000, 0.966453, -15.855029, 12.448025, 56.873779, -0.002298, -0.022196, -2.549049

149391561.573280, -0.042189, 0.042278, -0.020936, -0.000000, 0.000000, 0.966453, -15.877587, 12.417066, 56.900661, -0.002671, -0.021341, -2.547830

149391561.574317, -0.038011, 0.038099, -0.010031, 0.014889, -0.015483, 0.982041, -15.895634, 12.392298, 56.875519, -0.003321, -0.020840, -2.546396

149391561.575391, -0.044985, 0.033111, 0.002141, 0.014889, -0.015483, 0.982041, -15.910071, 12.372484, 56.855404, -0.004048, -0.020387, -2.544890

149391561.576405, -0.049719, 0.028228, 0.017345, -0.000000, 0.000000, 0.997629, -15.921621, 12.356633, 56.839310, -0.004477, -0.019695, -2.543454

149391561.577462, -0.040599, 0.017766, 0.029538, -0.000000, 0.000000, 0.997629, -15.910325, 12.343952, 56.779789, -0.004826, -0.019113, -2.541915

149391561.578455, -0.026888, 0.005133, 0.034896, -0.000000, 0.000000, 0.982041, -15.901288, 12.333807, 56.732170, -0.005008, -0.018676, -2.540376

149391561.579493, -0.021238, 0.002334, 0.045822, -0.000000, 0.000000, 0.982041, -15.894058, 12.325691, 56.694077, -0.005143, -0.018274, -2.538743

149391561.580518, -0.015708, -0.007881, 0.053828, 0.014889, 0.000000, 0.982041, -15.888275, 12.319199, 56.663601, -0.005209, -0.018286, -2.537573

149391561.581543, -0.008501, -0.024459, 0.063758, 0.014889, 0.000000, 0.982041, -15.904184, 12.334413, 56.662544, -0.005203, -0.018464, -2.536324

149391561.582601, -0.004136, -0.035905, 0.069591, 0.029778, 0.000000, 0.950865, -15.916912, 12.346584, 56.661701, -0.005155, -0.019090, -2.535514

149391561.583631, -0.009730, -0.035149, 0.073807, 0.029778, 0.000000, 0.950865, -15.927094, 12.356321, 56.661026, -0.005164, -0.019685, -2.534695

149391561.584668, -0.021485, -0.040987, 0.079729, 0.014889, 0.000000, 0.950865, -15.935239, 12.384520, 56.730457, -0.005297, -0.020015, -2.533328

149391561.585656, -0.032395, -0.038031, 0.081937, 0.014889, 0.000000, 0.950865, -15.941755, 12.407078, 56.786003, -0.005522, -0.020291, -2.531992

149391561.586706, -0.035600, -0.031549, 0.079913, 0.014889, -0.015483, 0.966453, -15.946968, 12.425124, 56.830441, -0.006118, -0.020519, -2.529952

149391561.587756, -0.037541, -0.025204, 0.086902, 0.014889, -0.015483, 0.966453, -15.868994, 12.439562, 56.796017, -0.006724, -0.020676, -2.527825

149391561.588770, -0.046020, -0.016899, 0.088660, 0.029778, 0.000000, 0.982041, -15.806614, 12.451112, 56.768478, -0.007065, -0.021030, -2.526860

149391561.589806, -0.044154, -0.012058, 0.090980, 0.029778, 0.000000, 0.982041, -15.756710, 12.460352, 56.746449, -0.007391, -0.021331, -2.525837

149391561.590844, -0.045617, -0.012104, 0.092653, 0.029778, 0.000000, 0.982041, -15.757859, 12.467744, 56.775471, -0.007727, -0.021626, -2.524813

149391561.591856, -0.044700, -0.010576, 0.094485, 0.014889, 0.000000, 0.935277, -15.758779, 12.473658, 56.798687, -0.008038, -0.021607, -2.523357

149391561.592917, -0.043161, -0.017829, 0.092795, 0.014889, 0.000000, 0.935277, -15.759515, 12.478388, 56.817261, -0.008349, -0.021669, -2.521900

149391561.593907, -0.048233, -0.022238, 0.093233, -0.000000, -0.015483, 0.966453, -15.760103, 12.482172, 56.832119, -0.009007, -0.021449, -2.519300

149391561.594932, -0.046619, -0.021769, 0.090673, -0.000000, -0.015483, 0.966453, -15.678429, 12.464791, 56.820683, -0.009653, -0.021236, -2.516706

149391561.595957, -0.041153, -0.015630, 0.089661, -0.000000, -0.030966, 0.997629, -15.613090, 12.450887, 56.811535, -0.010537, -0.020983, -2.513531

149391561.597029, -0.042678, -0.019786, 0.087773, -0.000000, -0.030966, 0.997629, -15.560818, 12.439763, 56.804214, -0.011437, -0.020784, -2.510372

149391561.598052, -0.041151, -0.014899, 0.089911, 0.014889, 0.000000, 0.950865, -15.580609, 12.430864, 56.821682, -0.011641, -0.020818, -2.509162

149391561.599087, -0.033109, -0.005615, 0.084729, 0.014889, 0.000000, 0.950865, -15.596442, 12.423745, 56.835659, -0.011762, -0.020760, -2.508034

149391561.600126, -0.024937, 0.007061, 0.079955, 0.029778, 0.000000, 0.950865, -15.609109, 12.418050, 56.846840, -0.011799, -0.020891, -2.507483

149391561.601121, -0.027402, 0.012294, 0.071694, 0.029778, 0.000000, 0.950865, -15.557633, 12.433902, 56.949078, -0.011846, -0.020973, -2.507020

149391561.602170, -0.026825, 0.015026, 0.062710, 0.029778, 0.000000, 0.982041, -15.516453, 12.446584, 57.030869, -0.011900, -0.020999, -2.506560

149391561.603245, -0.023868, 0.009626, 0.059595, 0.029778, 0.000000, 0.982041, -15.483508, 12.456729, 57.096302, -0.011927, -0.021077, -2.506101

149391561.604221, -0.031439, 0.021683, 0.064620, 0.044666, 0.000000, 0.950865, -15.457152, 12.464846, 57.148647, -0.012011, -0.021383, -2.506141

149391561.605246, -0.045727, 0.023917, 0.068044, 0.044666, 0.000000, 0.950865, -15.394996, 12.471338, 57.097229, -0.012252, -0.021650, -2.506078

149391561.606271, -0.050146, 0.030590, 0.061827, 0.029778, 0.000000, 0.982041, -15.345270, 12.476533, 57.056095, -0.012525, -0.021509, -2.505545

149391561.607483, -0.060154, 0.044597, 0.052153, 0.029778, 0.000000, 0.982041, -15.305490, 12.480688, 57.023190, -0.013002, -0.021147, -2.505001

149391561.608345, -0.068754, 0.053226, 0.045374, 0.059555, 0.000000, 0.966453, -15.417419, 12.381971, 56.950214, -0.013354, -0.021508, -2.505745

149391561.609395, -0.074184, 0.055694, 0.041130, 0.059555, 0.000000, 0.966453, -15.506964, 12.302999, 56.891834, -0.013884, -0.021738, -2.506537

149391561.610403, -0.092356, 0.058707, 0.042656, 0.074444, 0.000000, 0.982041, -15.578599, 12.239820, 56.845131, -0.014572, -0.022242, -2.507756

149391561.611459, -0.110146, 0.065245, 0.037273, 0.074444, 0.000000, 0.982041, -15.533225, 12.270910, 56.877743, -0.015471, -0.022641, -2.508945

149391561.612460, -0.118393, 0.069521, 0.032081, 0.133999, 0.000000, 1.013217, -15.496926, 12.295782, 56.903831, -0.016479, -0.024150, -2.511388

149391561.614039, -0.116797, 0.073739, 0.022734, 0.133999, 0.000000, 1.013217, -15.467887, 12.315680, 56.924702, -0.018111, -0.025171, -2.513728

149391561.614834, -0.103969, 0.081375, 0.003187, 0.148888, -0.061933, 1.028805, -15.526801, 12.229557, 56.848103, -0.019805, -0.026886, -2.514534

149391561.615605, -0.071282, 0.076372, -0.019306, 0.148888, -0.061933, 1.028805, -15.573933, 12.160659, 56.786823, -0.021189, -0.028628, -2.515551

149391561.616602, -0.026689, 0.058963, -0.042213, 0.193554, -0.046450, 1.075569, -15.611638, 12.105540, 56.737797, -0.022028, -0.031021, -2.518087

149391561.617635, 0.023208, 0.033801, -0.089464, 0.193554, -0.046450, 1.075569, -15.641802, 12.061445, 56.698578, -0.022334, -0.033612, -2.521096

149391561.618680, 0.061590, -0.007575, -0.177580, 0.193554, -0.046450, 1.075569, -15.665933, 12.046577, 56.760498, -0.022198, -0.036592, -2.524966

149391561.619685, 0.088163, -0.060720, -0.318079, 0.223331, -0.046450, 1.059981, -15.685238, 12.034683, 56.810036, -0.021841, -0.040645, -2.530562

149391561.620698, 0.119622, -0.088514, -0.361145, 0.223331, -0.046450, 1.059981, -15.700682, 12.025167, 56.849667, -0.021129, -0.044906, -2.536502

149391561.621761, 0.113514, -0.090958, -0.326326, 0.282887, -0.046450, 1.106744, -15.671965, 12.078779, 56.834721, -0.020487, -0.049989, -2.542792

149391561.622798, 0.115957, -0.120279, -0.335183, 0.282887, -0.046450, 1.106744, -15.648991, 12.121669, 56.822765, -0.019821, -0.055245, -2.548929

149391561.623795, 0.135810, -0.155404, -0.413985, 0.312664, -0.092899, 1.044393, -15.630611, 12.155981, 56.813202, -0.019816, -0.061471, -2.554800

149391561.624824, 0.168491, -0.176174, -0.516610, 0.312664, -0.092899, 1.044393, -15.574836, 12.183431, 56.852200, -0.019317, -0.067859, -2.561689

149391561.625886, 0.219193, -0.184726, -0.641838, 0.357330, -0.139349, 1.013217, -15.530215, 12.205390, 56.883396, -0.018958, -0.075228, -2.569347

149391561.626895, 0.272339, -0.184115, -0.796692, 0.357330, -0.139349, 1.013217, -15.494518, 12.222958, 56.908356, -0.018029, -0.082375, -2.578035

149391561.627936, 0.294941, -0.166705, -1.045009, 0.357330, -0.139349, 1.013217, -15.486497, 12.175787, 56.928322, -0.016483, -0.089308, -2.589377

149391561.628981, 0.270201, -0.130053, -1.287828, 0.357330, -0.139349, 1.013217, -15.480080, 12.138051, 56.944294, -0.014877, -0.095767, -2.603052

149391561.630002, 0.254623, -0.084849, -1.378541, 0.357330, -0.123865, 1.013217, -15.474946, 12.107862, 56.957073, -0.013099, -0.101607, -2.617461

149391561.631024, 0.250042, -0.058887, -1.463146, 0.357330, -0.123865, 1.013217, -15.470840, 12.083712, 56.967297, -0.011195, -0.107072, -2.632481

149391561.632076, 0.268063, -0.063774, -1.584097, 0.327553, -0.185798, 0.997629, -15.529163, 12.084799, 56.882175, -0.009820, -0.112176, -2.647085

149391561.633062, 0.295551, -0.073548, -1.711463, 0.327553, -0.185798, 0.997629, -15.575822, 12.085669, 56.814079, -0.008241, -0.117236, -2.661651

149391561.634153, 0.297384, -0.085460, -1.824473, 0.297775, -0.201281, 0.950865, -15.613149, 12.086364, 56.759602, -0.006345, -0.122223, -2.678133

149391561.635162, 0.284556, -0.081184, -1.932291, 0.297775, -0.201281, 0.950865, -15.786765, 12.086921, 56.739346, -0.004782, -0.126995, -2.693966

149391561.636187, 0.254318, -0.075381, -2.052936, 0.238220, -0.216764, 0.982041, -15.925658, 12.087366, 56.723141, -0.003472, -0.130490, -2.709697

149391561.637187, 0.215528, -0.061942, -2.204431, 0.238220, -0.216764, 0.982041, -16.036772, 12.087722, 56.710178, -0.002421, -0.133776, -2.726153

149391561.638218, 0.156274, -0.044532, -2.315303, 0.238220, -0.247731, 1.044393, -16.269419, 11.904333, 56.699806, -0.001936, -0.136675, -2.743613

149391561.639256, 0.113819, -0.034758, -2.312554, 0.238220, -0.247731, 1.044393, -16.455536, 11.757622, 56.691509, -0.001793, -0.139438, -2.760992

149391561.640279, 0.121149, -0.050030, -2.343097, 0.193554, -0.263214, 0.966453, -16.604429, 11.640253, 56.684872, -0.002234, -0.142049, -2.776845

149391561.641350, 0.162688, -0.085460, -2.418234, 0.193554, -0.263214, 0.966453, -16.723543, 11.546358, 56.679562, -0.001839, -0.145040, -2.794362

149391561.642351, 0.221942, -0.126388, -2.501006, 0.133999, -0.216764, 0.935277, -17.044735, 11.165120, 56.675312, -0.000539, -0.147147, -2.810621

149391561.643385, 0.267452, -0.157848, -2.557511, 0.133999, -0.216764, 0.935277, -17.301689, 10.860129, 56.671913, 0.001528, -0.149550, -2.828212

149391561.644445, 0.262259, -0.178312, -2.581029, 0.133999, -0.170315, 0.904101, -17.507252, 10.616137, 56.669193, 0.004588, -0.151945, -2.847707

149391561.645464, 0.242406, -0.179533, -2.588971, 0.133999, -0.170315, 0.904101, -17.794920, 10.400535, 56.690342, 0.007190, -0.154188, -2.866050

149391561.646476, 0.216750, -0.170981, -2.587749, 0.133999, -0.170315, 0.904101, -18.025055, 10.228053, 56.707260, 0.009497, -0.156259, -2.884041

149391561.647532, 0.189566, -0.180755, -2.583473, 0.119110, -0.139349, 0.919689, -18.209162, 10.090068, 56.720795, 0.012415, -0.157878, -2.903512

149391561.648513, 0.157190, -0.203357, -2.586222, 0.119110, -0.139349, 0.919689, -18.397520, 9.591925, 56.778275, 0.014561, -0.159520, -2.921025

149391561.649602, 0.151693, -0.229624, -2.610045, 0.089333, -0.170315, 0.982041, -18.548206, 9.193410, 56.824257, 0.016680, -0.161016, -2.939996

149391561.650627, 0.159939, -0.236038, -2.644865, 0.089333, -0.170315, 0.982041, -18.668756, 8.874599, 56.861042, 0.018563, -0.162394, -2.957490

149391561.651651, 0.165437, -0.238176, -2.680600, 0.029778, -0.185798, 0.950865, -18.888414, 8.435876, 56.890472, 0.019737, -0.162919, -2.973136

149391561.652660, 0.174906, -0.233900, -2.725194, 0.029778, -0.185798, 0.950865, -19.064140, 8.084897, 56.914017, 0.020968, -0.163335, -2.988754

149391561.653688, 0.196591, -0.228097, -2.765816, -0.000000, -0.185798, 0.950865, -19.204721, 7.804114, 56.932850, 0.022345, -0.163202, -3.004303

149391561.654722, 0.193537, -0.192972, -2.772536, -0.000000, -0.185798, 0.950865, -19.317186, 7.579488, 56.947918, 0.023693, -0.162710, -3.019921

149391561.655740, 0.180098, -0.153572, -2.749628, -0.031260, -0.123865, 0.950865, -19.407158, 7.052848, 56.983295, 0.025851, -0.160641, -3.036090

149391561.656777, 0.162383, -0.111727, -2.717863, -0.031260, -0.123865, 0.950865, -19.479136, 6.631536, 57.011597, 0.027796, -0.158163, -3.052419

149391561.657840, 0.126647, -0.089125, -2.671132, -0.109411, -0.061933, 0.950865, -19.536718, 6.294487, 57.034237, 0.030115, -0.153523, -3.068833

149391561.658821, 0.139170, -0.102564, -2.579808, -0.109411, -0.061933, 0.950865, -19.541712, 5.800358, 56.982376, 0.031865, -0.149065, -3.082343

149391561.659859, 0.184374, -0.121807, -2.498257, -0.156302, -0.046450, 0.950865, -19.545706, 5.405054, 56.940887, 0.033986, -0.143945, -3.095221

149391561.660928, 0.206365, -0.125777, -2.421899, -0.156302, -0.046450, 0.950865, -19.548901, 5.088811, 56.907700, 0.036270, -0.138952, -3.108193

149391561.661915, 0.217055, -0.110506, -2.333323, -0.156302, 0.000000, 0.950865, -19.571993, 4.468470, 56.951118, 0.039593, -0.133350, -3.123112

149391561.662995, 0.224997, -0.105619, -2.246275, -0.156302, 0.000000, 0.950865, -19.590467, 3.972197, 56.985855, 0.043259, -0.127771, -3.139768

149391561.663980, 0.233549, -0.145019, -2.194046, -0.187562, -0.015483, 0.950865, -19.605247, 3.575179, 57.013645, 0.045404, -0.122221, 3.132327

149391561.665058, 0.207281, -0.172508, -2.141206, -0.187562, -0.015483, 0.950865, -19.534925, 3.012666, 57.035877, 0.047649, -0.117055, 3.118984

149391561.666083, 0.162688, -0.173730, -2.077677, -0.203192, 0.000000, 0.935277, -19.478668, 2.562656, 57.053661, 0.049497, -0.111427, 3.105702

149391561.667118, 0.101602, -0.155099, -2.007427, -0.203192, 0.000000, 0.935277, -19.433662, 2.202648, 57.067890, 0.050650, -0.105710, 3.092310

149391561.668148, 0.065255, -0.136162, -1.932291, -0.140672, 0.000000, 0.982041, -19.397657, 1.914641, 57.079273, 0.051784, -0.101257, 3.077216

149391561.669136, 0.021884, -0.126694, -1.848907, -0.140672, 0.000000, 0.982041, -19.327782, 1.520971, 57.158352, 0.052255, -0.096803, 3.063360

149391561.670202, -0.019960, -0.131275, -1.768273, -0.109411, 0.000000, 0.966453, -19.271881, 1.206034, 57.221615, 0.052404, -0.093116, 3.048343

149391561.671218, -0.030651, -0.123639, -1.678782, -0.109411, 0.000000, 0.966453, -19.227160, 0.954085, 57.272224, 0.052239, -0.089452, 3.035013

149391561.672246, -0.037065, -0.097983, -1.586541, -0.109411, -0.015483, 1.013217, -19.068165, 0.507628, 57.242741, 0.051504, -0.085827, 3.023378

149391561.673269, -0.028207, -0.074770, -1.508045, -0.109411, -0.015483, 1.013217, -18.940969, 0.150462, 57.219154, 0.050779, -0.082080, 3.012298

149391561.674281, -0.015379, -0.072021, -1.436268, -0.109411, -0.015483, 1.013217, -18.839212, -0.135270, 57.200283, 0.050099, -0.078417, 3.001889

149391561.675345, -0.012019, -0.080879, -1.379763, -0.125042, 0.000000, 1.028805, -18.737270, -0.527122, 57.255161, 0.049887, -0.074604, 2.989435

149391561.676349, -0.005605, -0.075992, -1.345554, -0.125042, 0.000000, 1.028805, -18.655716, -0.840603, 57.299061, 0.049643, -0.070823, 2.977842

149391561.677393, 0.001420, -0.081489, -1.292715, -0.125042, 0.000000, 1.028805, -18.590473, -1.091388, 57.334183, 0.049446, -0.067201, 2.966053

149391561.678404, -0.017517, -0.088820, -1.255757, -0.125042, 0.000000, 1.028805, -18.538279, -1.292016, 57.362278, 0.048981, -0.063738, 2.954915

149391561.679445, 0.003863, -0.104702, -1.242318, -0.078151, -0.015483, 1.044393, -18.455450, -1.615783, 57.314781, 0.048359, -0.061508, 2.944920

149391561.680481, 0.006307, -0.103481, -1.218189, -0.078151, -0.015483, 1.044393, -18.389189, -1.874797, 57.276787, 0.047742, -0.059321, 2.935070

149391561.681511, 0.000809, -0.091263, -1.188868, -0.031260, 0.015516, 0.982041, -18.336180, -2.082009, 57.246391, 0.047791, -0.057855, 2.923593

149391561.682569, 0.000504, -0.066218, -1.172069, -0.031260, 0.015516, 0.982041, -18.129480, -2.390635, 57.198750, 0.047833, -0.056172, 2.911806

149391561.683578, 0.009667, -0.028039, -1.164433, -0.000000, 0.046549, 0.950865, -17.964121, -2.637536, 57.160637, 0.048625, -0.054771, 2.899000

149391561.684628, -0.000718, -0.005131, -1.160462, -0.000000, 0.046549, 0.950865, -17.831833, -2.835057, 57.130146, 0.049301, -0.053144, 2.885785

149391561.685669, -0.015074, 0.031215, -1.162906, 0.014889, 0.031033, 0.935277, -17.746540, -3.074706, 57.152401, 0.049446, -0.051496, 2.873861

149391561.686686, -0.032789, 0.048930, -1.169625, 0.014889, 0.031033, 0.935277, -17.678305, -3.266425, 57.170204, 0.049383, -0.049721, 2.862171

149391561.687684, -0.047449, 0.058704, -1.176039, 0.014889, 0.046549, 0.950865, -17.623716, -3.419801, 57.184448, 0.049483, -0.047897, 2.849804

149391561.688750, -0.056307, 0.072449, -1.185202, 0.014889, 0.046549, 0.950865, -17.580046, -3.746583, 57.195843, 0.049477, -0.045883, 2.836488

149391561.689746, -0.046228, 0.078252, -1.195587, 0.044666, 0.108614, 0.919689, -17.545111, -4.008008, 57.204960, 0.050903, -0.044702, 2.821253

149391561.690772, -0.055696, 0.055344, -1.158935, 0.044666, 0.108614, 0.919689, -17.517162, -4.217149, 57.212254, 0.052178, -0.043729, 2.806151

149391561.691844, -0.077076, 0.109406, -1.175429, 0.074444, 0.015516, 0.966453, -17.494802, -4.384461, 57.218086, 0.051211, -0.042639, 2.795793

149391561.692847, 0.008445, 0.074587, -1.205972, 0.074444, 0.015516, 0.966453, -17.415306, -4.701985, 57.246075, 0.051124, -0.042018, 2.785833

149391561.693873, 0.027382, 0.068783, -1.192838, 0.074444, 0.062065, 0.966453, -17.351709, -4.956004, 57.268467, 0.052150, -0.041404, 2.773422

149391561.694898, 0.044486, 0.020830, -1.184286, 0.074444, 0.062065, 0.966453, -17.300831, -5.159219, 57.286381, 0.053320, -0.041276, 2.761162

149391561.695945, 0.057009, 0.015333, -1.183370, 0.074444, 0.046549, 0.966453, -17.260128, -5.383015, 57.207417, 0.054308, -0.041177, 2.749434

149391561.696982, 0.037766, 0.010446, -1.168404, 0.074444, 0.046549, 0.966453, -17.227566, -5.562052, 57.144245, 0.055065, -0.041136, 2.738052

149391561.698038, 0.000198, 0.011057, -1.182759, 0.104221, 0.000000, 0.904101, -17.201517, -5.705282, 57.093708, 0.054599, -0.041911, 2.729113

149391561.699037, -0.107620, 0.029077, -1.215135, 0.104221, 0.000000, 0.904101, -17.160141, -5.962723, 57.029953, 0.053078, -0.042527, 2.720483

149391561.700058, -0.037676, -0.003604, -1.286911, 0.059555, 0.031033, 0.950865, -17.127041, -6.168676, 56.978951, 0.052848, -0.042291, 2.708614

149391561.701135, -0.048671, 0.014416, -1.290577, 0.059555, 0.031033, 0.950865, -17.100561, -6.333438, 56.938148, 0.052514, -0.041837, 2.696100

149391561.702121, -0.065775, 0.004337, -1.287217, 0.074444, 0.015516, 0.935277, -17.079376, -6.465248, 56.905506, 0.051724, -0.041939, 2.685940

149391561.703185, -0.046839, -0.001466, -1.304321, 0.074444, 0.015516, 0.935277, -17.062429, -6.570696, 56.879395, 0.051150, -0.042044, 2.674719

149391561.704183, -0.049587, 0.000366, -1.312262, 0.074444, 0.015516, 0.935277, -17.048872, -6.655054, 56.858505, 0.050563, -0.042178, 2.664420

149391561.705216, -0.067913, 0.012889, -1.305237, 0.074444, 0.015516, 0.950865, -17.038025, -6.722541, 56.841793, 0.049797, -0.042148, 2.653889

149391561.706251, -0.080131, 0.023885, -1.304627, 0.074444, 0.015516, 0.950865, -16.782911, -7.123469, 56.851746, 0.048916, -0.042012, 2.643134

149391561.707272, -0.082574, 0.029383, -1.312262, 0.059555, 0.000000, 0.982041, -16.578821, -7.444211, 56.859707, 0.047688, -0.041522, 2.632855

149391561.708333, -0.081963, 0.022663, -1.322953, 0.059555, 0.000000, 0.982041, -16.415548, -7.700805, 56.866077, 0.046479, -0.041084, 2.621874

149391561.709341, -0.080436, 0.008919, -1.352579, 0.059555, 0.000000, 0.966453, -16.202785, -8.089753, 56.847851, 0.045330, -0.040850, 2.611095

149391561.710384, -0.079520, 0.024496, -1.374571, 0.059555, 0.000000, 0.966453, -16.032576, -8.400912, 56.833267, 0.044208, -0.040439, 2.599521

149391561.711413, -0.096013, 0.042822, -1.378236, 0.014889, 0.000000, 0.966453, -15.896407, -8.649839, 56.821602, 0.042891, -0.038931, 2.586975

149391561.712414, -0.119531, 0.054428, -1.383123, 0.014889, 0.000000, 0.966453, -15.664254, -8.971430, 56.742298, 0.041364, -0.037379, 2.574589

149391561.713486, -0.115255, 0.071227, -1.395035, -0.000000, 0.000000, 0.997629, -15.478532, -9.228703, 56.678856, 0.039846, -0.035300, 2.560567

149391561.714521, -0.097540, 0.086193, -1.408779, -0.000000, 0.000000, 0.997629, -15.329954, -9.434521, 56.628101, 0.038538, -0.033172, 2.546917

149391561.715535, -0.091432, 0.104824, -1.393202, -0.000000, 0.000000, 0.982041, -15.211092, -9.599175, 56.587498, 0.037291, -0.030955, 2.533763

149391561.716560, -0.100595, 0.108184, -1.377319, -0.000000, 0.000000, 0.982041, -14.992784, -9.894164, 56.555016, 0.035939, -0.028753, 2.520472

149391561.717612, -0.092959, 0.112155, -1.358688, -0.000000, 0.046549, 0.997629, -14.818137, -10.130156, 56.529030, 0.035604, -0.026531, 2.504710

149391561.718638, -0.145799, 0.117042, -1.334864, -0.000000, 0.046549, 0.997629, -14.678420, -10.318949, 56.508240, 0.034720, -0.024364, 2.489625

149391561.719651, 0.049373, 0.072754, -1.367851, -0.000000, 0.186196, 1.044393, -14.566646, -10.633248, 56.468285, 0.038414, -0.023074, 2.470080

149391561.720700, 0.071364, 0.082833, -1.359299, -0.000000, 0.186196, 1.044393, -14.477226, -10.884687, 56.436321, 0.042261, -0.021587, 2.450388

149391561.721722, -0.143355, 0.076725, -1.254230, 0.044666, -0.030966, 0.966453, -14.405691, -11.085839, 56.410748, 0.039658, -0.020932, 2.441683

149391561.722758, -0.110063, 0.041600, -1.251176, 0.044666, -0.030966, 0.966453, -14.163635, -11.410026, 56.366966, 0.037421, -0.020649, 2.432582

149391561.723782, -0.013546, 0.053206, -1.280803, -0.015630, 0.000000, 0.982041, -13.969991, -11.669375, 56.331940, 0.036797, -0.018900, 2.419371

149391561.724798, -0.021182, 0.081306, -1.236515, -0.015630, 0.000000, 0.982041, -13.815075, -11.876855, 56.303921, 0.036077, -0.016938, 2.406679

149391561.725860, 0.034101, 0.084666, -1.220938, -0.000000, -0.015483, 0.966453, -13.588461, -12.206104, 56.258179, 0.035588, -0.015285, 2.394839

149391561.726849, 0.089384, 0.067562, -1.229185, -0.000000, -0.015483, 0.966453, -13.407169, -12.469503, 56.221588, 0.035590, -0.013920, 2.383669

149391561.727911, 0.097631, 0.034575, -1.218495, -0.015630, 0.000000, 0.950865, -13.262136, -12.680223, 56.192314, 0.036074, -0.012483, 2.370187

149391561.728902, 0.066477, 0.004337, -1.189784, -0.015630, 0.000000, 0.950865, -13.146111, -12.848798, 56.168896, 0.036147, -0.011432, 2.357878

149391561.729974, 0.059147, -0.013073, -1.176650, -0.046891, 0.000000, 0.982041, -12.950608, -13.004066, 56.126835, 0.036247, -0.009897, 2.343152

149391561.731016, 0.028603, -0.002993, -1.157103, -0.046891, 0.000000, 0.982041, -12.794206, -13.128282, 56.093189, 0.035988, -0.008309, 2.329033

149391561.732029, 0.024022, -0.004520, -1.156492, -0.046891, 0.000000, 0.982041, -12.669084, -13.227654, 56.066273, 0.035654, -0.006784, 2.315351

149391561.733050, 0.032574, -0.027428, -1.157103, -0.046891, -0.015483, 1.028805, -12.445768, -13.388783, 56.021416, 0.035078, -0.005564, 2.302233

149391561.734101, 0.049678, -0.058887, -1.151910, -0.046891, -0.015483, 1.028805, -12.267116, -13.517688, 55.985527, 0.034688, -0.004696, 2.288818

149391561.735087, 0.062201, -0.072021, -1.132668, -0.015630, -0.015483, 0.950865, -12.124193, -13.620811, 55.956818, 0.034320, -0.004594, 2.277949

149391561.736172, 0.068310, -0.057360, -1.115564, -0.015630, -0.015483, 0.950865, -11.804492, -13.764534, 56.050468, 0.034089, -0.004375, 2.265991

149391561.737182, 0.069531, -0.019181, -1.090824, 0.014889, -0.015483, 0.982041, -11.548731, -13.879513, 56.125389, 0.033835, -0.004447, 2.256525

149391561.738208, 0.068310, 0.018998, -1.073719, 0.014889, -0.015483, 0.982041, -11.344122, -13.971496, 56.185326, 0.033583, -0.004138, 2.247034

149391561.739246, 0.064034, 0.040073, -1.073109, 0.014889, -0.030966, 0.966453, -11.180435, -14.187939, 56.233276, 0.032977, -0.003655, 2.238045

149391561.740263, 0.053954, 0.053206, -1.067611, 0.014889, -0.030966, 0.966453, -11.049486, -14.361094, 56.248314, 0.032263, -0.003072, 2.229264

149391561.741288, 0.037766, 0.060231, -1.064251, -0.000000, -0.015483, 0.982041, -10.944727, -14.499617, 56.260342, 0.031709, -0.002072, 2.218974

149391561.742346, 0.036239, 0.055955, -1.063335, -0.000000, -0.015483, 0.982041, -10.860919, -14.610435, 56.269966, 0.031152, -0.001115, 2.208401

149391561.743373, 0.035934, 0.044960, -1.062418, -0.046891, -0.015483, 0.872925, -10.711727, -14.699091, 56.254341, 0.030607, 0.000823, 2.195207

149391561.744391, -0.018433, 0.054428, -1.058142, -0.046891, -0.015483, 0.872925, -10.592374, -14.770015, 56.241840, 0.029501, 0.002796, 2.182236

149391561.745439, -0.062721, 0.053206, -1.068833, 0.014889, -0.015483, 0.966453, -10.496891, -14.826754, 56.231842, 0.027927, 0.003261, 2.172737

149391561.746427, -0.109147, 0.062064, -1.094183, 0.014889, -0.015483, 0.966453, -10.256214, -14.872145, 56.177193, 0.025968, 0.003745, 2.163562

149391561.747458, -0.161376, 0.059926, -1.099987, -0.000000, -0.030966, 0.966453, -10.063673, -14.908458, 56.133472, 0.023136, 0.004514, 2.153712

149391561.748517, -0.262779, 0.078557, -1.076468, -0.000000, -0.030966, 0.966453, -9.909639, -14.937509, 56.098499, 0.019253, 0.005443, 2.143825

149391561.749539, -0.156794, 0.043127, -1.081355, -0.015630, -0.061933, 0.935277, -9.683731, -15.164831, 56.047195, 0.015904, 0.006225, 2.134598

149391561.750592, -0.222462, 0.105130, -1.062113, -0.015630, -0.061933, 0.935277, -9.503005, -15.346689, 56.006153, 0.011885, 0.007615, 2.125078

149391561.751577, -0.282632, 0.096578, -1.036151, -0.015630, -0.061933, 0.904101, -9.358424, -15.492175, 55.973320, 0.007466, 0.008783, 2.116496

149391561.752643, -0.353493, 0.087109, -1.049285, -0.015630, -0.061933, 0.904101, -9.242759, -15.608564, 55.947052, 0.002148, 0.009868, 2.106883

149391561.753642, -0.374568, 0.047709, -1.096627, -0.000000, -0.046450, 0.904101, -9.129690, -15.926166, 55.879391, -0.002689, 0.010099, 2.097632

149391561.754677, -0.333945, 0.034575, -1.128392, -0.000000, -0.046450, 0.904101, -9.039235, -16.180246, 55.825260, -0.007157, 0.010160, 2.087587

149391561.755706, -0.297293, 0.027550, -1.140915, 0.014889, -0.030966, 0.935277, -8.966871, -16.383511, 55.781956, -0.010767, 0.009796, 2.077668

149391561.756769, -0.283243, 0.033353, -1.176345, 0.014889, -0.030966, 0.935277, -8.765226, -16.627754, 55.700665, -0.014264, 0.009462, 2.066848

149391561.757766, -0.259420, 0.065424, -1.150383, -0.000000, -0.030966, 0.966453, -8.603910, -16.823151, 55.635632, -0.017260, 0.009732, 2.056070

149391561.758815, -0.212994, 0.073059, -1.124421, -0.000000, -0.030966, 0.966453, -8.474857, -16.979467, 55.583607, -0.019858, 0.010071, 2.044968

149391561.759858, -0.189781, 0.083750, -1.091129, -0.031260, 0.000000, 0.966453, -8.248397, -17.308601, 55.495338, -0.021495, 0.011116, 2.031446

149391561.760868, -0.212078, 0.101465, -1.041344, -0.031260, 0.000000, 0.966453, -8.067228, -17.571909, 55.424725, -0.023261, 0.012285, 2.018760

149391561.761917, -0.262779, 0.125288, -0.990031, -0.031260, 0.000000, 0.966453, -7.922293, -17.782555, 55.368233, -0.025609, 0.013695, 2.006226

149391561.762953, -0.231320, 0.158275, -0.967429, -0.046891, -0.015483, 0.950865, -7.744736, -18.134745, 55.323040, -0.027866, 0.015731, 1.993293

149391561.763976, -0.213910, 0.172020, -0.944521, -0.046891, -0.015483, 0.950865, -7.602691, -18.416496, 55.286884, -0.029891, 0.017830, 1.980735

149391561.764991, -0.200471, 0.177212, -0.912451, -0.078151, -0.077416, 0.982041, -7.489054, -18.641899, 55.257961, -0.032913, 0.020622, 1.967583

149391561.766018, -0.191308, 0.178434, -0.879770, -0.078151, -0.077416, 0.982041, -7.398145, -18.822220, 55.234821, -0.035836, 0.023364, 1.954736

149391561.767071, -0.196806, 0.175074, -0.836398, -0.093781, -0.046450, 0.966453, -7.202199, -18.966476, 55.146336, -0.038131, 0.026334, 1.940534

149391561.768119, -0.213299, 0.137506, -0.798525, -0.093781, -0.046450, 0.966453, -7.045443, -19.081882, 55.075550, -0.040561, 0.028839, 1.926867

149391561.769138, -0.240177, 0.100243, -0.758818, -0.062521, -0.046450, 0.966453, -6.920038, -19.174208, 55.018921, -0.043278, 0.030241, 1.916084

149391561.770147, -0.259114, 0.091996, -0.694678, -0.062521, -0.046450, 0.966453, -6.778641, -19.390924, 54.880322, -0.046096, 0.031530, 1.906018

149391561.771180, -0.273164, 0.077335, -0.701703, -0.062521, -0.092899, 0.966453, -6.665524, -19.564299, 54.769440, -0.050044, 0.032683, 1.896386

149391561.772208, -0.234985, 0.076725, -0.680628, -0.062521, -0.092899, 0.966453, -6.575030, -19.702997, 54.680737, -0.053518, 0.033784, 1.887029

149391561.773258, -0.158932, 0.062369, -0.674519, -0.046891, -0.092899, 0.966453, -6.461562, -19.875181, 54.586449, -0.056226, 0.034359, 1.878776

149391561.774280, -0.074327, 0.050457, -0.717585, -0.046891, -0.092899, 0.966453, -6.370788, -20.012928, 54.511021, -0.058003, 0.034755, 1.870284

149391561.775284, 0.003558, 0.053512, -0.755764, -0.031260, -0.061933, 0.950865, -6.298169, -20.123125, 54.450676, -0.058369, 0.034812, 1.862112

149391561.776330, 0.024633, 0.068478, -0.756986, -0.031260, -0.061933, 0.950865, -6.240073, -20.211283, 54.402401, -0.058522, 0.035021, 1.853682

149391561.777359, 0.012721, 0.085582, -0.764011, -0.000000, 0.000000, 0.935277, -6.070379, -20.445074, 54.387104, -0.057491, 0.034739, 1.846070

149391561.778405, -0.035843, 0.084666, -0.795165, -0.000000, 0.000000, 0.935277, -5.934623, -20.632107, 54.374866, -0.056990, 0.034447, 1.837997

149391561.779432, -0.081658, 0.079474, -0.863887, -0.015630, -0.015483, 0.935277, -5.826019, -20.781734, 54.365078, -0.057308, 0.034384, 1.828770

149391561.780480, -0.124724, 0.071532, -0.890460, -0.015630, -0.015483, 0.935277, -5.574844, -20.860620, 54.310600, -0.058093, 0.034225, 1.819031

149391561.781493, -0.125029, 0.070005, -0.882213, -0.015630, -0.030966, 0.950865, -5.373905, -20.923729, 54.267017, -0.059128, 0.034045, 1.809865

149391561.782506, -0.143050, 0.063591, -0.883435, -0.015630, -0.030966, 0.950865, -5.213153, -20.974215, 54.232151, -0.060318, 0.033795, 1.800710

149391561.783547, -0.158932, 0.049236, -0.889849, -0.046891, -0.030966, 0.982041, -5.084552, -21.096237, 54.180931, -0.061657, 0.033989, 1.789546

149391561.784581, -0.178480, 0.027550, -0.888627, -0.046891, -0.030966, 0.982041, -4.981671, -21.193855, 54.139957, -0.063157, 0.033949, 1.778571

149391561.785595, -0.169622, 0.022663, -0.854724, -0.031260, -0.046450, 0.982041, -4.899366, -21.271950, 54.107178, -0.064811, 0.033580, 1.769260

149391561.786645, -0.133887, 0.026328, -0.807688, -0.031260, -0.046450, 0.982041, -4.689767, -21.395649, 54.034306, -0.066118, 0.033263, 1.760070

149391561.787671, -0.120448, 0.023885, -0.742936, -0.031260, -0.077416, 0.982041, -4.522089, -21.494608, 53.976009, -0.067827, 0.032975, 1.751999

149391561.788697, -0.097235, 0.011667, -0.704451, -0.031260, -0.077416, 0.982041, -4.387946, -21.573776, 53.929371, -0.069254, 0.032584, 1.744313

149391561.789757, -0.049282, 0.015638, -0.692845, -0.031260, -0.077416, 0.982041, -4.280632, -21.637110, 53.892063, -0.070187, 0.032230, 1.736536

149391561.790782, -0.035232, 0.032742, -0.677268, -0.000000, -0.061933, 0.966453, -4.051025, -21.708185, 53.885540, -0.070618, 0.031439, 1.730786

149391561.791790, -0.024237, 0.046792, -0.651306, -0.000000, -0.061933, 0.966453, -3.867341, -21.765045, 53.880322, -0.070910, 0.030820, 1.725310

149391561.792845, -0.026985, 0.026023, -0.617403, -0.031260, -0.030966, 0.966453, -3.720393, -21.810534, 53.876144, -0.070607, 0.030645, 1.717771

149391561.793853, -0.049587, -0.026817, -0.590830, -0.031260, -0.030966, 0.966453, -3.582298, -21.826517, 53.896126, -0.070500, 0.029981, 1.710831

149391561.794908, -0.017517, -0.077824, -0.581362, -0.046891, -0.077416, 0.982041, -3.471823, -21.839304, 53.912113, -0.071003, 0.029112, 1.703037

149391561.795895, 0.072891, -0.088514, -0.596328, -0.046891, -0.077416, 0.982041, -3.383442, -21.849533, 53.924904, -0.070597, 0.028225, 1.695543

149391561.796979, 0.104045, -0.079962, -0.589303, -0.062521, -0.046450, 0.997629, -3.230592, -21.918940, 53.935135, -0.069136, 0.027594, 1.686640

149391561.797987, 0.084803, -0.061636, -0.563647, -0.062521, -0.046450, 0.997629, -3.108312, -21.974464, 53.943321, -0.067952, 0.027275, 1.678468

149391561.798991, 0.133672, -0.029871, -0.572505, -0.078151, -0.092899, 0.982041, -3.010489, -22.018885, 53.949867, -0.067218, 0.027685, 1.669063

149391561.800040, 0.231411, -0.019792, -0.594801, -0.078151, -0.092899, 0.982041, -2.726866, -21.931973, 53.955105, -0.065447, 0.028158, 1.659020

149391561.801086, 0.315405, -0.017043, -0.596634, -0.000000, -0.108382, 0.997629, -2.499968, -21.862442, 53.959297, -0.063220, 0.026998, 1.654269

149391561.802112, 0.424749, -0.012767, -0.605491, -0.000000, -0.108382, 0.997629, -2.318449, -21.806818, 53.962650, -0.059991, 0.025925, 1.649416

149391561.803118, 0.519128, 0.014722, -0.612822, 0.014889, -0.046450, 1.013217, -2.173234, -21.762320, 53.965332, -0.054715, 0.024918, 1.644875

149391561.804140, 0.477895, 0.050457, -0.579224, 0.014889, -0.046450, 1.013217, -2.057062, -21.543047, 54.014126, -0.049865, 0.024331, 1.640560

149391561.805218, 0.407340, 0.066034, -0.541045, -0.000000, -0.030966, 1.028805, -1.964125, -21.367630, 54.053162, -0.045300, 0.024274, 1.635410

149391561.806224, 0.394512, 0.060537, -0.536769, -0.000000, -0.030966, 1.028805, -1.889775, -21.227295, 54.084389, -0.041226, 0.024160, 1.630728

149391561.807247, 0.425666, 0.027245, -0.562120, -0.015630, 0.000000, 1.013217, -1.830295, -21.074211, 54.249317, -0.036272, 0.024035, 1.624832

149391561.808297, 0.470870, -0.019487, -0.592969, -0.015630, 0.000000, 1.013217, -1.782711, -20.951744, 54.381260, -0.030844, 0.023455, 1.618557

149391561.809334, 0.437883, -0.049419, -0.612516, -0.000000, -0.015483, 0.982041, -1.744644, -20.853771, 54.486813, -0.026225, 0.022310, 1.613135

149391561.810354, 0.403064, -0.064691, -0.622901, -0.000000, -0.015483, 0.982041, -1.611508, -20.530495, 54.571255, -0.022116, 0.021070, 1.607720

149391561.811361, 0.377407, -0.078130, -0.632369, -0.000000, 0.015516, 0.950865, -1.505000, -20.271873, 54.638809, -0.017740, 0.019764, 1.602178

149391561.812397, 0.325178, -0.069578, -0.645808, -0.000000, 0.015516, 0.950865, -1.419793, -20.064976, 54.692852, -0.013878, 0.018570, 1.596366

149391561.813426, 0.242406, -0.059804, -0.641227, 0.014889, 0.000000, 0.935277, -1.351628, -19.899458, 54.736088, -0.011242, 0.017206, 1.591622

149391561.814483, 0.163910, -0.041172, -0.639700, 0.014889, 0.000000, 0.935277, -1.194414, -19.726227, 54.770676, -0.009404, 0.016057, 1.586678

149391561.815510, 0.111376, -0.025595, -0.644587, -0.000000, 0.031033, 0.919689, -1.068642, -19.587643, 54.798344, -0.007517, 0.015438, 1.580873

149391561.816513, 0.075029, -0.010935, -0.646725, -0.000000, 0.031033, 0.919689, -0.968026, -19.476774, 54.820480, -0.006046, 0.014993, 1.575233

149391561.817548, 0.046624, -0.001161, -0.642449, -0.000000, 0.031033, 0.919689, -0.866996, -19.347263, 54.884838, -0.004869, 0.014660, 1.569448

149391561.818613, 0.038377, 0.015638, -0.646114, -0.000000, 0.000000, 0.935277, -0.786172, -19.243654, 54.936325, -0.004463, 0.014500, 1.563550

149391561.819614, 0.063728, 0.027550, -0.659553, -0.000000, 0.000000, 0.935277, -0.721512, -19.160769, 54.977512, -0.003836, 0.014455, 1.557974

149391561.820648, 0.076556, 0.031826, -0.667189, -0.000000, 0.015516, 0.982041, -0.484958, -19.074051, 55.010464, -0.002760, 0.014473, 1.551958

149391561.821680, 0.064950, 0.035186, -0.667189, -0.000000, 0.015516, 0.982041, -0.295714, -19.004677, 55.036823, -0.001825, 0.014530, 1.545888

149391561.822737, 0.060674, 0.037324, -0.664745, -0.015630, 0.000000, 0.982041, -0.144319, -18.949177, 55.057911, -0.001261, 0.014933, 1.538727

149391561.823751, 0.044791, 0.044960, -0.656498, -0.015630, 0.000000, 0.982041, 0.038405, -18.945595, 55.121429, -0.000890, 0.015393, 1.531877

149391561.824755, 0.019746, 0.055955, -0.640005, -0.000000, 0.000000, 0.982041, 0.184585, -18.942728, 55.172245, -0.000771, 0.015631, 1.526161

149391561.825799, -0.011714, 0.059315, -0.611905, -0.000000, 0.000000, 0.982041, 0.301529, -18.940435, 55.212898, -0.000970, 0.015920, 1.520475

149391561.826841, -0.023931, 0.054428, -0.586554, -0.046891, 0.000000, 0.982041, 0.395085, -18.938601, 55.245419, -0.001260, 0.017103, 1.512317

149391561.827862, -0.020571, 0.044960, -0.560898, -0.046891, 0.000000, 0.982041, 0.511001, -18.937134, 55.201462, -0.001509, 0.018155, 1.504585

149391561.828886, -0.033399, 0.037629, -0.533104, -0.015630, 0.000000, 0.982041, 0.603735, -18.935959, 55.166298, -0.001912, 0.018478, 1.498997

149391561.829917, -0.032178, 0.026634, -0.508364, -0.015630, 0.000000, 0.982041, 0.677922, -18.935020, 55.138168, -0.002294, 0.018685, 1.493656

149391561.830937, -0.022404, 0.019609, -0.490954, -0.046891, -0.030966, 0.935277, 0.778344, -18.913860, 55.185635, -0.003188, 0.019532, 1.486176

149391561.832013, -0.050809, 0.016860, -0.478737, -0.046891, -0.030966, 0.935277, 0.858681, -18.896933, 55.223610, -0.004384, 0.020337, 1.478614

149391561.833019, -0.077687, 0.011973, -0.469574, -0.015630, 0.000000, 0.997629, 0.922952, -18.883390, 55.253990, -0.005156, 0.020339, 1.473938

149391561.834043, -0.083185, 0.007086, -0.468047, -0.015630, 0.000000, 0.997629, 0.994904, -18.872557, 55.208321, -0.005983, 0.020291, 1.469214

149391561.835067, -0.072800, -0.000855, -0.467130, -0.015630, -0.015483, 0.950865, 1.052466, -18.863890, 55.171783, -0.007014, 0.020176, 1.464376

149391561.836125, -0.080436, -0.011240, -0.446972, -0.015630, -0.015483, 0.950865, 1.098516, -18.856956, 55.142555, -0.008127, 0.019950, 1.459641

149391561.837163, -0.088377, -0.000244, -0.419177, -0.015630, -0.030966, 0.966453, 1.217501, -18.973858, 55.095848, -0.009589, 0.019836, 1.455151

149391561.838166, -0.074022, 0.021441, -0.397492, -0.015630, -0.030966, 0.966453, 1.312689, -19.067379, 55.058483, -0.010843, 0.019936, 1.451010

149391561.839219, -0.067303, 0.039156, -0.383136, -0.000000, -0.046450, 0.982041, 1.388839, -19.142197, 55.028591, -0.012338, 0.019883, 1.447760

149391561.840238, -0.047449, 0.046181, -0.370308, -0.000000, -0.046450, 0.982041, 1.449760, -19.202051, 55.004677, -0.013577, 0.019887, 1.444766

149391561.841241, -0.019655, 0.036102, -0.356869, -0.031260, -0.015483, 0.982041, 1.436887, -19.188709, 55.055519, -0.013879, 0.020433, 1.440319

149391561.842278, -0.015379, 0.031826, -0.336405, -0.031260, -0.015483, 0.982041, 1.426589, -19.178036, 55.096191, -0.014139, 0.020937, 1.436059

149391561.843332, -0.017517, 0.024801, -0.311360, -0.046891, 0.000000, 0.982041, 1.418350, -19.169498, 55.128731, -0.014087, 0.021672, 1.431369

149391561.844339, -0.045254, 0.019495, -0.277894, -0.046891, 0.000000, 0.982041, 1.514441, -19.162668, 55.038143, -0.014294, 0.022336, 1.427155

149391561.845376, -0.179339, -0.029985, -0.200620, -0.046891, -0.061933, 0.935277, 1.591314, -19.157204, 54.965672, -0.017162, 0.022616, 1.422479

149391561.846414, -0.263333, -0.006467, -0.173436, -0.015630, -0.015483, 0.935277, 1.652812, -19.152832, 54.907696, -0.019867, 0.022400, 1.420878

149391561.847427, -0.298764, 0.032323, -0.235439, -0.015630, -0.015483, 0.935277, 1.743083, -19.271784, 54.814667, -0.022818, 0.022557, 1.418651

149391561.848485, -0.247451, -0.030596, -0.293777, -0.046891, -0.061933, 0.950865, 1.815300, -19.366945, 54.740242, -0.026262, 0.022747, 1.413038

149391561.849529, -0.310981, -0.019295, -0.229942, -0.046891, -0.061933, 0.950865, 1.873074, -19.443073, 54.680702, -0.030238, 0.023055, 1.408190

149391561.850564, -0.343051, 0.010637, -0.151140, -0.015630, -0.061933, 0.919689, 1.919292, -19.503977, 54.633072, -0.034497, 0.022997, 1.406313

149391561.851581, -0.309454, 0.011859, -0.149002, -0.015630, -0.061933, 0.919689, 1.935731, -19.736374, 54.618290, -0.038270, 0.022944, 1.404552

149391561.852590, -0.188502, 0.023771, -0.153278, -0.031260, -0.046450, 0.997629, 1.948882, -19.922291, 54.606464, -0.040330, 0.023289, 1.402173

149391561.853614, -0.080481, 0.058254, -0.136596, -0.031260, -0.046450, 0.997629, 1.959403, -20.071024, 54.597004, -0.041292, 0.023979, 1.399994

149391561.854645, 0.003738, 0.060914, -0.124750, -0.046891, -0.046450, 1.013217, 1.947283, -20.128786, 54.519463, -0.041359, 0.024989, 1.397120

149391561.855703, 0.009639, 0.041692, -0.092822, -0.046891, -0.046450, 1.013217, 1.937587, -20.174995, 54.457432, -0.041358, 0.025809, 1.394636

149391561.856716, 0.007044, 0.002243, -0.064555, -0.046891, -0.061933, 0.997629, 1.929831, -20.211964, 54.407806, -0.041699, 0.026243, 1.392254

149391561.857770, 0.057428, -0.040263, -0.057814, -0.046891, -0.061933, 0.997629, 1.964698, -20.221130, 54.438076, -0.041508, 0.026233, 1.389944

149391561.858761, 0.100172, -0.062737, -0.039853, -0.046891, -0.046450, 1.013217, 1.992592, -20.228464, 54.462292, -0.040617, 0.026011, 1.388177

149391561.859832, 0.114209, -0.062612, -0.007320, -0.046891, -0.046450, 1.013217, 2.014907, -20.234331, 54.481667, -0.039509, 0.025759, 1.386733

149391561.860837, 0.099247, -0.052623, 0.035293, -0.046891, -0.030966, 0.982041, 2.012223, -20.300247, 54.567139, -0.038349, 0.025689, 1.385883

149391561.861866, 0.079516, -0.043741, 0.057573, -0.046891, -0.030966, 0.982041, 2.010076, -20.352982, 54.635517, -0.037383, 0.025707, 1.385292

149391561.862897, 0.058747, -0.045574, 0.066125, -0.000000, -0.015483, 0.982041, 2.008358, -20.395168, 54.690220, -0.036319, 0.024775, 1.387643

149391561.863944, 0.038374, -0.049698, 0.065630, -0.000000, -0.015483, 0.982041, 2.006984, -20.428917, 54.733982, -0.035478, 0.023810, 1.389958

149391561.864967, 0.022797, -0.060388, 0.067463, -0.031260, -0.061933, 0.950865, 1.964812, -20.394693, 54.675694, -0.035821, 0.023421, 1.389830

149391561.866016, 0.025008, -0.063003, 0.071125, -0.031260, -0.061933, 0.950865, 1.931074, -20.367313, 54.629063, -0.036126, 0.022999, 1.389796

149391561.867054, 0.025677, -0.059285, 0.078299, -0.031260, -0.061933, 0.935277, 1.904084, -20.345409, 54.591759, -0.036442, 0.022643, 1.389803

149391561.868073, 0.019157, -0.052356, 0.086219, -0.031260, -0.061933, 0.935277, 1.800346, -20.368702, 54.631886, -0.036820, 0.022377, 1.389993

149391561.869075, 0.015165, -0.040789, 0.092477, -0.015630, -0.077416, 0.950865, 1.717356, -20.387337, 54.663990, -0.037538, 0.021883, 1.391239

149391561.870107, 0.004381, -0.032455, 0.095912, -0.015630, -0.077416, 0.950865, 1.650964, -20.402245, 54.689671, -0.038346, 0.021474, 1.392603

149391561.871142, -0.004477, -0.029095, 0.100188, -0.015630, -0.077416, 0.966453, 1.700532, -20.393763, 54.663570, -0.039200, 0.021104, 1.393957

149391561.872198, -0.003866, -0.027873, 0.106907, -0.015630, -0.077416, 0.966453, 1.740186, -20.386976, 54.642689, -0.040031, 0.020755, 1.395325

149391561.873208, 0.018125, -0.036120, 0.108740, 0.014889, -0.077416, 0.966453, 1.771910, -20.381548, 54.625984, -0.040585, 0.019674, 1.398770

149391561.874257, 0.037673, -0.044061, 0.105075, 0.014889, -0.077416, 0.966453, 1.653535, -20.315981, 54.612621, -0.040922, 0.018518, 1.402298

149391561.875293, 0.046531, -0.030317, 0.112100, 0.014889, -0.077416, 0.966453, 1.558834, -20.263527, 54.601929, -0.041167, 0.017532, 1.405925

149391561.876312, 0.040117, -0.020237, 0.122179, -0.000000, -0.061933, 0.950865, 1.483074, -20.221563, 54.593376, -0.041210, 0.017012, 1.408666

149391561.877318, 0.024845, -0.006493, 0.118514, -0.000000, -0.061933, 0.950865, 1.422465, -20.187992, 54.586533, -0.041409, 0.016638, 1.411366

149391561.878344, 0.020874, -0.011074, 0.115765, -0.000000, -0.046450, 0.982041, 1.415051, -20.161137, 54.557735, -0.041284, 0.016238, 1.414113

149391561.879384, 0.009879, -0.022070, 0.117598, -0.000000, -0.046450, 0.982041, 1.409120, -20.139652, 54.534698, -0.041271, 0.015733, 1.416850

149391561.880445, 0.006519, -0.030622, 0.117903, -0.000000, -0.061933, 0.966453, 1.404375, -20.122463, 54.516266, -0.041628, 0.015136, 1.419475

149391561.881469, 0.005908, -0.041923, 0.112711, -0.000000, -0.061933, 0.966453, 1.318434, -20.129122, 54.571491, -0.041989, 0.014445, 1.422061

149391561.882472, 0.002548, -0.046505, 0.110267, 0.014889, -0.030966, 0.982041, 1.249681, -20.134447, 54.615673, -0.041703, 0.013455, 1.425693

149391561.883496, -0.006004, -0.050781, 0.113016, 0.014889, -0.030966, 0.982041, 1.194679, -20.138708, 54.651020, -0.041511, 0.012434, 1.429364

149391561.884560, -0.012418, -0.055668, 0.109351, -0.000000, -0.030966, 0.935277, 1.171213, -20.203342, 54.562675, -0.041449, 0.011659, 1.432086

149391561.885569, -0.018221, -0.053224, 0.105991, -0.000000, -0.030966, 0.935277, 1.152440, -20.255049, 54.492001, -0.041442, 0.010950, 1.434681

149391561.886607, -0.022803, -0.048032, 0.102021, -0.000000, -0.030966, 0.950865, 1.137422, -20.296413, 54.435463, -0.041477, 0.010293, 1.437235

149391561.887640, -0.027107, -0.044330, 0.089408, -0.000000, -0.030966, 0.950865, 1.125408, -20.329506, 54.390232, -0.041557, 0.009683, 1.439618

149391561.888685, -0.017566, -0.046685, 0.076163, -0.000000, -0.046450, 0.935277, 1.115797, -20.376389, 54.493992, -0.041884, 0.009039, 1.441777

149391561.889707, -0.014206, -0.050487, 0.064095, -0.000000, -0.046450, 0.935277, 1.108107, -20.413895, 54.577000, -0.042170, 0.008375, 1.443768

149391561.890721, -0.011515, -0.053610, 0.053177, -0.000000, -0.046450, 0.982041, 1.101956, -20.443899, 54.643406, -0.042377, 0.007694, 1.445625

149391561.891757, -0.002900, -0.051883, 0.046078, -0.000000, -0.046450, 0.982041, 1.035426, -20.467903, 54.626556, -0.042496, 0.007031, 1.447460

149391561.892774, -0.002540, -0.049296, 0.042716, 0.014889, -0.046450, 0.950865, 0.982202, -20.487106, 54.613079, -0.042619, 0.006098, 1.450244

149391561.893832, 0.001699, -0.052145, 0.034939, 0.014889, -0.046450, 0.950865, 0.939622, -20.502468, 54.602295, -0.042698, 0.005132, 1.452959

149391561.894870, 0.010634, -0.054635, 0.026430, 0.014889, -0.030966, 0.935277, 0.926095, -20.514757, 54.640316, -0.042374, 0.004178, 1.455560

149391561.895907, 0.021772, -0.057372, 0.022584, 0.014889, -0.030966, 0.935277, 0.915274, -20.524590, 54.670734, -0.041945, 0.003214, 1.458083

149391561.896915, 0.015969, -0.054012, 0.016170, -0.000000, -0.030966, 0.982041, 0.906616, -20.532455, 54.695068, -0.041576, 0.002630, 1.459555

149391561.897933, 0.003971, -0.040616, 0.010747, -0.000000, -0.030966, 0.982041, 0.940763, -20.599972, 54.621239, -0.041334, 0.002183, 1.460908

149391561.898970, 0.005682, -0.028399, 0.004540, 0.014889, -0.046450, 0.997629, 0.968081, -20.653984, 54.562176, -0.041363, 0.001550, 1.463007

149391561.900010, 0.012439, -0.010758, 0.003249, 0.014889, -0.046450, 0.997629, 0.989935, -20.697195, 54.514923, -0.041324, 0.001108, 1.465019

149391561.901027, 0.013074, -0.002757, 0.001087, 0.014889, -0.061933, 0.982041, 1.007418, -20.731764, 54.477123, -0.041611, 0.000736, 1.466952

149391561.902085, 0.023862, -0.001802, 0.002560, 0.014889, -0.061933, 0.982041, 0.980332, -20.698195, 54.470207, -0.041776, 0.000381, 1.468892

149391561.903120, 0.035918, 0.000329, -0.002876, 0.014889, -0.061933, 1.013217, 0.958663, -20.671339, 54.464676, -0.041783, 0.000064, 1.470733

149391561.904150, 0.031574, -0.000276, -0.007002, -0.000000, -0.030966, 1.013217, 0.941328, -20.649855, 54.460251, -0.041239, 0.000062, 1.471672

149391561.905159, 0.031507, -0.006849, -0.014031, -0.000000, -0.030966, 1.013217, 0.886387, -20.632668, 54.526680, -0.040714, -0.000007, 1.472584

149391561.906180, 0.026957, -0.009993, -0.024499, 0.014889, -0.015483, 0.982041, 0.842434, -20.618917, 54.579823, -0.039932, -0.000396, 1.474301

149391561.907213, 0.013831, -0.006793, -0.031160, 0.014889, -0.015483, 0.982041, 0.807272, -20.607918, 54.622337, -0.039294, -0.000749, 1.475948

149391561.908255, 0.010550, -0.003062, -0.031700, 0.029778, -0.030966, 0.982041, 0.758606, -20.537893, 54.586380, -0.038990, -0.001372, 1.478496

149391561.909261, 0.012421, 0.003282, -0.031032, 0.029778, -0.030966, 0.982041, 0.719673, -20.481874, 54.557613, -0.038677, -0.001919, 1.481051

149391561.910304, 0.012757, 0.004708, -0.033967, -0.000000, -0.030966, 0.966453, 0.688527, -20.437059, 54.534599, -0.038414, -0.001843, 1.481761

149391561.911334, 0.006210, 0.007897, -0.036242, -0.000000, -0.030966, 0.966453, 0.663610, -20.401207, 54.516190, -0.038224, -0.001737, 1.482460

149391561.912371, 0.006976, 0.007133, -0.042655, 0.014889, -0.046450, 0.997629, 0.643676, -20.372524, 54.501461, -0.038305, -0.001952, 1.483995

149391561.913425, 0.010417, 0.005189, -0.058800, 0.014889, -0.046450, 0.997629, 0.627729, -20.349579, 54.489677, -0.038348, -0.002189, 1.485343

149391561.914447, 0.006610, -0.000601, -0.114672, 0.029778, -0.015483, 0.966453, 0.614972, -20.331223, 54.480251, -0.037794, -0.002779, 1.487012

149391561.915451, -0.003098, -0.015838, -0.174450, 0.029778, -0.015483, 0.966453, 0.625302, -20.398170, 54.519360, -0.037347, -0.003529, 1.488073

149391561.916485, -0.006620, -0.021783, -0.186923, -0.000000, -0.030966, 0.982041, 0.633566, -20.451729, 54.550644, -0.037292, -0.003747, 1.487166

149391561.917551, 0.006376, -0.019830, -0.162357, -0.000000, -0.030966, 0.982041, 0.640178, -20.494576, 54.575672, -0.037106, -0.003940, 1.486468

149391561.918551, 0.003551, -0.007452, -0.122162, -0.000000, -0.030966, 0.966453, 0.707076, -20.488035, 54.595695, -0.036967, -0.003976, 1.486207

149391561.919586, 0.003177, -0.002212, -0.095371, -0.000000, -0.030966, 0.966453, 0.760594, -20.482803, 54.611713, -0.036834, -0.003952, 1.486120

149391561.920619, 0.001316, -0.011435, -0.092765, 0.014889, -0.015483, 0.966453, 0.803409, -20.478619, 54.624527, -0.036391, -0.004314, 1.486926

149391561.921626, -0.002898, -0.024051, -0.093204, 0.014889, -0.015483, 0.966453, 0.796588, -20.454861, 54.658100, -0.035999, -0.004788, 1.487746

149391561.922699, -0.001342, -0.027731, -0.093634, 0.014889, -0.015483, 0.966453, 0.791132, -20.435856, 54.684959, -0.035600, -0.005310, 1.488493

149391561.923697, -0.004602, -0.030137, -0.091364, 0.014889, -0.015483, 0.966453, 0.786766, -20.420650, 54.706448, -0.035241, -0.005822, 1.489320

149391561.924736, -0.003608, -0.031596, -0.095719, -0.000000, -0.030966, 0.966453, 0.783274, -20.408487, 54.723637, -0.035210, -0.006060, 1.489147

149391561.925752, -0.008017, -0.027641, -0.107757, -0.000000, -0.030966, 0.966453, 0.821553, -20.398756, 54.714066, -0.035222, -0.006251, 1.488836

149391561.926800, -0.018613, -0.022574, -0.109376, -0.000000, -0.030966, 0.966453, 0.852176, -20.390972, 54.706409, -0.035344, -0.006396, 1.488447

149391561.927849, -0.028686, -0.012830, -0.096309, -0.000000, -0.030966, 0.966453, 0.876675, -20.384745, 54.700283, -0.035569, -0.006433, 1.488167

149391561.928873, -0.033165, -0.008374, -0.095477, 0.014889, -0.030966, 0.950865, 0.855201, -20.400171, 54.672058, -0.035828, -0.006733, 1.488877

149391561.929887, -0.027982, -0.006404, -0.097055, 0.014889, -0.030966, 0.950865, 0.838022, -20.412512, 54.649479, -0.036027, -0.007007, 1.489583

149391561.930924, -0.020041, -0.007015, -0.099499, -0.046891, -0.030966, 0.966453, 0.824278, -20.422384, 54.631416, -0.036087, -0.006010, 1.486490

149391561.931976, -0.009453, -0.009259, -0.095012, -0.000000, -0.030966, 0.966453, 0.854356, -20.389467, 54.593643, -0.036100, -0.006019, 1.486284

149391561.933010, -0.006264, -0.000393, -0.093012, -0.000000, -0.030966, 0.966453, 0.878419, -20.363132, 54.563423, -0.036079, -0.005935, 1.486088

149391561.934020, -0.012411, 0.007688, -0.091951, -0.000000, -0.030966, 0.935277, 0.897669, -20.342066, 54.539246, -0.036139, -0.005772, 1.485902

149391561.935026, -0.009758, 0.011115, -0.088819, -0.000000, -0.030966, 0.935277, 0.871996, -20.447660, 54.519905, -0.036171, -0.005578, 1.485785

149391561.936063, -0.001479, 0.012974, -0.094723, -0.000000, -0.030966, 0.935277, 0.851458, -20.532135, 54.504433, -0.036122, -0.005368, 1.485609

149391561.937097, -0.002046, 0.021970, -0.094523, -0.000000, -0.030966, 0.935277, 0.835027, -20.599716, 54.492054, -0.036079, -0.005072, 1.485460

149391561.938162, -0.005406, 0.038463, -0.093301, -0.000000, -0.046450, 0.982041, 0.821883, -20.653780, 54.482151, -0.036356, -0.004608, 1.485269

149391561.939183, -0.002003, 0.039447, -0.096719, -0.000000, -0.046450, 0.982041, 0.831904, -20.676624, 54.544201, -0.036592, -0.004161, 1.485078

149391561.940232, 0.008205, 0.041906, -0.092889, -0.000000, -0.015483, 0.950865, 0.839920, -20.694899, 54.593842, -0.036099, -0.003674, 1.484974

149391561.941230, 0.007435, 0.040725, -0.090933, -0.000000, -0.015483, 0.950865, 0.846334, -20.709518, 54.633553, -0.035628, -0.003226, 1.484934

149391561.942242, 0.000999, 0.044950, -0.086328, -0.015630, -0.046450, 0.966453, 0.872001, -20.680397, 54.618675, -0.035861, -0.002422, 1.483826

149391561.943285, 0.002174, 0.046695, -0.087500, -0.015630, -0.046450, 0.966453, 0.892534, -20.657101, 54.606773, -0.036079, -0.001605, 1.482676

149391561.944308, 0.006756, 0.042113, -0.083835, 0.029778, -0.061933, 0.997629, 0.908961, -20.638464, 54.597252, -0.036490, -0.001809, 1.484449

149391561.945345, 0.002427, 0.039732, -0.080276, 0.029778, -0.061933, 0.997629, 0.942639, -20.623554, 54.612957, -0.036938, -0.002027, 1.486174

149391561.946364, -0.001810, 0.035606, -0.074101, 0.014889, -0.030966, 0.982041, 0.969581, -20.611626, 54.625523, -0.036836, -0.001957, 1.486974

149391561.947439, -0.015825, 0.026186, -0.072840, 0.014889, -0.030966, 0.982041, 0.991135, -20.602083, 54.635574, -0.036885, -0.001969, 1.487711

149391561.948429, -0.016090, 0.023242, -0.075792, -0.000000, -0.046450, 0.966453, 1.008378, -20.594450, 54.643616, -0.037263, -0.001735, 1.487508

149391561.949465, -0.024721, 0.020959, -0.069412, -0.000000, -0.046450, 0.966453, 1.022173, -20.690384, 54.650051, -0.037728, -0.001516, 1.487330

149391561.950531, -0.027490, 0.019621, -0.061971, 0.014889, -0.015483, 0.982041, 1.033208, -20.767132, 54.655197, -0.037565, -0.001593, 1.488146

149391561.951540, -0.028705, 0.014723, -0.046613, 0.014889, -0.015483, 0.982041, 1.042037, -20.828529, 54.659313, -0.037403, -0.001720, 1.489127

149391561.952577, -0.023616, 0.013516, -0.039951, -0.000000, -0.015483, 0.997629, 1.090172, -20.734791, 54.639282, -0.037205, -0.001558, 1.489254

149391561.953601, -0.027902, 0.002467, -0.043595, -0.000000, -0.015483, 0.997629, 1.128680, -20.659800, 54.623257, -0.037051, -0.001513, 1.489308

149391561.954615, -0.031568, 0.002162, -0.047260, -0.000000, -0.046450, 0.950865, 1.159487, -20.599806, 54.610439, -0.037600, -0.001480, 1.489174

149391561.955639, -0.032099, 0.002116, -0.035501, -0.000000, -0.046450, 0.950865, 1.143060, -20.613037, 54.600185, -0.038146, -0.001445, 1.489177

149391561.956695, -0.032918, 0.005062, -0.021597, -0.000000, -0.030966, 0.982041, 1.129918, -20.623621, 54.591980, -0.038354, -0.001371, 1.489389

149391561.957730, -0.030431, 0.005254, -0.017554, -0.000000, -0.030966, 0.982041, 1.119404, -20.632088, 54.585415, -0.038526, -0.001295, 1.489654

149391561.958738, -0.030987, -0.000239, -0.022567, -0.000000, -0.061933, 0.982041, 1.131530, -20.720495, 54.580166, -0.039321, -0.001284, 1.489744

149391561.959791, -0.024354, -0.001729, -0.031062, -0.000000, -0.061933, 0.982041, 1.141230, -20.791220, 54.575966, -0.040045, -0.001292, 1.489729

149391561.960791, -0.005602, -0.000197, -0.034594, -0.000000, -0.061933, 0.982041, 1.148991, -20.847799, 54.572605, -0.040559, -0.001286, 1.489691

149391561.961834, 0.001991, 0.000704, -0.032072, -0.000000, -0.061933, 0.950865, 1.155199, -20.893064, 54.569916, -0.041028, -0.001270, 1.489652

149391561.962854, 0.003145, 0.002483, -0.031696, -0.000000, -0.061933, 0.950865, 1.139629, -20.868052, 54.591091, -0.041476, -0.001236, 1.489640

149391561.963914, 0.012348, 0.005122, -0.031327, -0.000000, -0.061933, 0.966453, 1.127174, -20.848042, 54.608028, -0.041798, -0.001175, 1.489636

149391561.964923, 0.014480, 0.006509, -0.024389, -0.000000, -0.061933, 0.966453, 1.117209, -20.832033, 54.621578, -0.042099, -0.001101, 1.489726

149391561.965967, 0.016866, 0.016239, -0.027164, -0.015630, -0.061933, 0.966453, 1.088701, -20.860043, 54.585770, -0.042358, -0.000595, 1.488780

149391561.966983, 0.020398, 0.017691, -0.031675, -0.015630, -0.061933, 0.966453, 1.065894, -20.882450, 54.557125, -0.042583, -0.000091, 1.487845

149391561.968042, 0.016978, 0.015525, -0.039381, -0.000000, -0.061933, 0.966453, 1.047649, -20.900375, 54.534210, -0.042834, 0.000049, 1.487884

149391561.969074, 0.011538, 0.020879, -0.038851, -0.000000, -0.061933, 0.966453, 1.033053, -20.935125, 54.539200, -0.043141, 0.000237, 1.487955

149391561.970118, 0.009501, 0.024028, -0.034445, -0.015630, -0.030966, 0.966453, 1.021376, -20.962925, 54.543194, -0.042819, 0.000784, 1.487262

149391561.971143, 0.021859, 0.016944, -0.039999, -0.015630, -0.030966, 0.966453, 1.012035, -20.985165, 54.546387, -0.042382, 0.001243, 1.486548

149391561.972165, 0.019007, 0.016886, -0.050818, -0.015630, -0.061933, 0.966453, 1.025098, -21.043772, 54.525620, -0.042621, 0.001694, 1.485532

149391561.973185, 0.014421, 0.020417, -0.049150, -0.015630, -0.061933, 0.966453, 1.035548, -21.090658, 54.509003, -0.042902, 0.002171, 1.484545

149391561.974230, 0.016210, 0.023875, -0.046022, -0.000000, -0.046450, 0.950865, 1.043909, -21.128166, 54.495712, -0.042854, 0.002350, 1.484658

149391561.975259, 0.014972, 0.017093, -0.048043, -0.000000, -0.046450, 0.950865, 1.050597, -21.158173, 54.485077, -0.042823, 0.002452, 1.484753

149391561.976262, 0.019142, 0.012846, -0.049424, -0.000000, -0.061933, 0.982041, 1.076484, -21.018913, 54.453247, -0.043038, 0.002504, 1.484758

149391561.977306, 0.026513, 0.002410, -0.043300, -0.000000, -0.061933, 0.982041, 1.097194, -20.907505, 54.427780, -0.043166, 0.002454, 1.484777

149391561.978346, 0.025656, -0.001827, -0.034914, 0.014889, -0.046450, 0.966453, 1.113762, -20.818378, 54.407410, -0.042990, 0.002060, 1.485854

149391561.979381, 0.020630, -0.007769, -0.023713, 0.014889, -0.046450, 0.966453, 1.065407, -20.869528, 54.414436, -0.042870, 0.001619, 1.487080

149391561.980392, 0.013319, -0.011791, -0.024709, -0.000000, -0.030966, 0.982041, 1.026723, -20.910446, 54.420059, -0.042511, 0.001462, 1.487446

149391561.981419, 0.018720, -0.017523, -0.036448, -0.000000, -0.030966, 0.982041, 0.995776, -20.943182, 54.424557, -0.042103, 0.001245, 1.487718

149391561.982439, 0.017498, -0.023937, -0.034310, -0.000000, -0.077416, 0.935277, 0.991554, -20.948961, 54.451477, -0.042737, 0.000957, 1.487838

149391561.983498, 0.004871, -0.017752, -0.027608, -0.000000, -0.077416, 0.935277, 0.988177, -20.953585, 54.473015, -0.043484, 0.000733, 1.488014

149391561.984520, 0.002122, -0.011033, -0.026691, -0.015630, -0.061933, 0.982041, 0.985475, -20.957283, 54.490246, -0.043849, 0.000918, 1.487280

149391561.985543, 0.002077, -0.004521, -0.027325, -0.015630, -0.061933, 0.982041, 0.983314, -20.960243, 54.504028, -0.044208, 0.001164, 1.486553

149391561.986601, 0.007415, -0.007416, -0.028544, -0.000000, -0.061933, 0.997629, 0.981585, -21.003428, 54.468407, -0.044487, 0.001046, 1.486830

149391561.987610, -0.005299, -0.005466, -0.027644, -0.000000, -0.061933, 0.997629, 0.980202, -21.037973, 54.439911, -0.044889, 0.000954, 1.487127

149391561.988632, -0.012363, -0.006248, -0.026464, -0.000000, -0.061933, 0.997629, 0.979095, -21.065611, 54.417114, -0.045355, 0.000856, 1.487430

149391561.989651, -0.008216, -0.008807, -0.029495, -0.000000, -0.061933, 0.966453, 0.937137, -21.046906, 54.445522, -0.045810, 0.000732, 1.487738

149391561.990698, -0.004754, -0.015200, -0.026482, -0.000000, -0.061933, 0.966453, 0.903571, -21.031940, 54.468250, -0.046222, 0.000544, 1.488103

149391561.991737, -0.002262, -0.020860, -0.027719, -0.000000, -0.030966, 0.966453, 0.876718, -21.019968, 54.486431, -0.045962, 0.000313, 1.488576

