Using settings file RTIMULib.ini
IMU Name: L3GD20 + LSM303DLHC
IMU Init Succeeded
Recommended Poll Interval: 4mS

Time, gyroX, gyroY, gyroZ, accelX, accelY, accelZ, magX, magY, magZ, phi, theta, psi

149391603.663584, 0.009030, 0.030639, -0.042490, -0.015630, -0.030966, 0.982041, -0.564911, 3.907625, 11.634875, -0.031522, 0.015907, -1.659930

149391603.664396, 0.045682, -0.026171, -0.048904, -0.000000, 0.015516, 0.982041, -1.016840, 7.033725, 20.942776, -0.030228, 0.015340, -1.661534

149391603.665159, 0.044122, -0.052829, -0.046678, -0.000000, 0.015516, 0.982041, -1.419456, 9.534605, 28.342449, -0.028992, 0.014600, -1.663149

149391603.666179, 0.028542, -0.050521, -0.041809, -0.000000, 0.015516, 0.966453, -1.741549, 11.535309, 34.262188, -0.027821, 0.013763, -1.664844

149391603.667197, 0.011197, -0.022248, -0.040928, -0.000000, 0.015516, 0.966453, -1.999223, 13.135872, 38.997978, -0.026846, 0.013227, -1.666529

149391603.668195, 0.005580, -0.010717, -0.040665, -0.000000, 0.015516, 0.982041, -2.205363, 14.416323, 42.786610, -0.025952, 0.012821, -1.668187

149391603.669268, 0.021608, -0.027235, -0.041902, -0.015630, 0.015516, 0.982041, -2.390810, 15.563132, 45.794189, -0.024895, 0.012580, -1.668899

149391603.670269, 0.036402, -0.048489, -0.043711, -0.015630, 0.015516, 0.982041, -2.539169, 16.480581, 48.200256, -0.023729, 0.012155, -1.669595

149391603.671315, 0.045204, -0.060625, -0.042491, -0.000000, 0.015516, 0.966453, -2.657856, 17.214540, 50.125107, -0.022482, 0.011257, -1.671248

149391603.672338, 0.043953, -0.054863, -0.041298, -0.000000, 0.015516, 0.966453, -2.650123, 17.781298, 51.734962, -0.021281, 0.010452, -1.672738

149391603.673362, 0.018211, -0.039057, -0.038634, -0.031260, 0.000000, 0.950865, -2.643937, 18.234705, 53.022846, -0.020688, 0.010511, -1.672071

149391603.674404, -0.006093, -0.035843, -0.049781, -0.031260, 0.000000, 0.950865, -2.638988, 18.597429, 54.053154, -0.020354, 0.010593, -1.671476

149391603.675416, -0.025998, -0.044058, -0.057404, -0.062521, 0.000000, 0.982041, -2.696638, 18.908018, 54.830750, -0.020287, 0.011231, -1.669197

149391603.676486, 0.003254, -0.061071, -0.062774, -0.062521, 0.000000, 0.982041, -2.742758, 19.156488, 55.452827, -0.019927, 0.011651, -1.667067

149391603.677487, 0.001116, -0.072983, -0.052083, -0.062521, 0.015516, 0.935277, -2.779654, 19.355265, 55.950489, -0.019275, 0.012078, -1.664598

149391603.678516, -0.011765, -0.071446, -0.050090, -0.062521, 0.015516, 0.935277, -2.809171, 19.514286, 56.348618, -0.018764, 0.012491, -1.662186

149391603.679552, -0.017873, -0.067781, -0.058031, -0.015630, 0.000000, 0.935277, -2.894394, 19.539463, 56.690445, -0.018577, 0.011875, -1.662921

149391603.680587, -0.019889, -0.057982, -0.055913, -0.015630, 0.000000, 0.935277, -2.962572, 19.559605, 56.963909, -0.018413, 0.011371, -1.663684

149391603.681593, -0.024165, -0.049125, -0.048582, -0.078151, 0.000000, 0.966453, -3.017114, 19.575718, 57.182678, -0.018409, 0.012293, -1.660679

149391603.682637, -0.022161, -0.057060, -0.035599, -0.078151, 0.000000, 0.966453, -2.937530, 19.690649, 57.381020, -0.018392, 0.013099, -1.657531

149391603.683700, -0.022293, -0.065726, -0.020498, -0.078151, 0.031033, 0.950865, -2.873863, 19.782595, 57.539692, -0.017742, 0.013880, -1.653924

149391603.684704, -0.048435, -0.081386, -0.019468, -0.078151, 0.031033, 0.950865, -2.822929, 19.856150, 57.666630, -0.017347, 0.014528, -1.650306

149391603.685727, -0.064928, -0.081691, -0.024050, -0.046891, 0.031033, 0.997629, -2.823254, 19.853769, 57.768181, -0.017057, 0.014390, -1.649049

149391603.686780, -0.085388, -0.065619, -0.025935, -0.046891, 0.031033, 0.997629, -2.823514, 19.851866, 57.849419, -0.017004, 0.014394, -1.647843

149391603.687819, -0.105119, -0.051082, -0.026585, -0.062521, 0.000000, 0.982041, -2.823723, 19.850342, 57.914410, -0.017797, 0.014873, -1.645707

149391603.688846, -0.122341, -0.033860, -0.024531, -0.062521, 0.000000, 0.982041, -2.782817, 19.767490, 57.896431, -0.018735, 0.015523, -1.643548

149391603.689844, -0.126006, -0.008815, -0.021476, -0.015630, 0.015516, 0.982041, -2.750092, 19.701210, 57.882050, -0.019280, 0.015433, -1.644238

149391603.690878, -0.119167, 0.031736, -0.012652, -0.015630, 0.015516, 0.982041, -2.723912, 19.648186, 57.870544, -0.019788, 0.015753, -1.644817

149391603.691911, -0.107090, 0.064556, -0.009695, -0.046891, 0.031033, 0.982041, -2.702968, 19.605766, 57.861340, -0.019871, 0.017084, -1.643368

149391603.692940, -0.084803, 0.067084, -0.012481, -0.046891, 0.031033, 0.982041, -2.665677, 19.653463, 57.970596, -0.019724, 0.018410, -1.641927

149391603.693982, -0.067170, 0.049825, -0.006537, -0.031260, 0.000000, 0.966453, -2.635844, 19.691620, 58.058002, -0.020021, 0.019202, -1.641354

149391603.695022, -0.043032, 0.018278, -0.002811, -0.031260, 0.000000, 0.966453, -2.611978, 19.722145, 58.127926, -0.020064, 0.019657, -1.640719

149391603.696043, -0.019103, -0.010213, -0.004247, -0.000000, 0.015516, 0.966453, -2.633957, 19.644526, 58.207188, -0.019548, 0.019136, -1.642151

149391603.697087, 0.011200, -0.043187, -0.008942, -0.000000, 0.015516, 0.966453, -2.651541, 19.582430, 58.270599, -0.018735, 0.018286, -1.643626

149391603.698116, 0.025017, -0.063806, -0.008753, -0.000000, 0.015516, 0.966453, -2.665607, 19.532753, 58.321327, -0.017801, 0.017252, -1.645087

149391603.699140, 0.025686, -0.063360, -0.006775, -0.000000, 0.015516, 0.950865, -2.574179, 19.513420, 58.315262, -0.016872, 0.016249, -1.646409

149391603.700177, 0.004215, -0.040797, -0.003044, -0.000000, 0.015516, 0.950865, -2.501036, 19.497953, 58.310410, -0.016175, 0.015490, -1.647597

149391603.701182, -0.021289, -0.026483, -0.000887, -0.000000, 0.015516, 0.982041, -2.442522, 19.485580, 58.306526, -0.015753, 0.014903, -1.648677

149391603.702224, -0.041173, -0.011872, 0.008400, -0.000000, 0.015516, 0.982041, -2.436784, 19.455273, 58.350071, -0.015550, 0.014468, -1.649642

149391603.703277, -0.017044, -0.017370, 0.018480, -0.046891, 0.000000, 0.982041, -2.432193, 19.431026, 58.384907, -0.015444, 0.014971, -1.647512

149391603.704286, -0.017582, -0.037935, 0.041114, -0.046891, 0.000000, 0.982041, -2.428520, 19.411631, 58.412773, -0.015334, 0.015271, -1.645200

149391603.705313, -0.020501, -0.068232, 0.059982, -0.015630, -0.015483, 0.997629, -2.425582, 19.396114, 58.435066, -0.015535, 0.014603, -1.644588

149391603.706371, -0.006614, -0.096696, 0.075464, -0.015630, -0.015483, 0.997629, -2.443768, 19.302069, 58.452900, -0.015592, 0.013634, -1.643828

149391603.707363, 0.008774, -0.104527, 0.095702, 0.014889, 0.000000, 0.997629, -2.458317, 19.226831, 58.467167, -0.015209, 0.012046, -1.644848

149391603.708395, 0.012776, -0.109204, 0.116412, 0.014889, 0.000000, 0.997629, -2.469956, 19.166641, 58.478580, -0.014787, 0.010406, -1.645622

149391603.709440, 0.011909, -0.109895, 0.124127, 0.044666, 0.000000, 0.997629, -2.376585, 19.159306, 58.417740, -0.014454, 0.008174, -1.647923

149391603.710482, 0.010163, -0.106385, 0.121514, 0.044666, 0.000000, 0.997629, -2.301888, 19.153437, 58.369068, -0.014141, 0.006025, -1.650136

149391603.711498, 0.012939, -0.108033, 0.110883, 0.014889, 0.000000, 0.966453, -2.242131, 19.148743, 58.330132, -0.013740, 0.004524, -1.650677

149391603.712524, 0.030607, -0.121306, 0.094196, 0.014889, 0.000000, 0.966453, -2.091644, 19.247028, 58.275658, -0.013168, 0.002910, -1.651196

149391603.713571, 0.050765, -0.136884, 0.081673, -0.000000, 0.015516, 0.982041, -1.971254, 19.325657, 58.232079, -0.012066, 0.001451, -1.650866

149391603.714612, 0.064815, -0.143908, 0.080146, -0.000000, 0.015516, 0.982041, -1.874941, 19.388559, 58.197216, -0.010847, -0.000042, -1.650453

149391603.715639, 0.068481, -0.138716, 0.076786, 0.044666, 0.015516, 0.997629, -1.797892, 19.438881, 58.169327, -0.009697, -0.002362, -1.652733

149391603.716637, 0.068235, -0.115165, 0.065303, 0.044666, 0.015516, 0.997629, -1.736252, 19.336281, 58.240311, -0.008589, -0.004364, -1.655074

149391603.717718, 0.068891, -0.081345, 0.039410, 0.059555, 0.015516, 0.966453, -1.686940, 19.254202, 58.297096, -0.007478, -0.006409, -1.658569

149391603.718702, 0.051295, -0.054516, 0.016753, 0.059555, 0.015516, 0.966453, -1.647491, 19.188538, 58.342525, -0.006619, -0.008076, -1.662237

149391603.719732, 0.034191, -0.043215, -0.000962, 0.029778, 0.000000, 1.013217, -1.574859, 19.278864, 58.285572, -0.006157, -0.008943, -1.663791

149391603.720788, 0.018820, -0.036624, -0.021274, 0.029778, 0.000000, 1.013217, -1.516753, 19.351124, 58.240009, -0.005851, -0.009736, -1.665452

149391603.721797, 0.023806, -0.044225, -0.026806, 0.059555, 0.000000, 1.013217, -1.470269, 19.408932, 58.203560, -0.005569, -0.011161, -1.668747

149391603.722855, 0.035264, -0.049573, -0.026840, 0.059555, 0.000000, 1.013217, -1.371472, 19.414362, 58.221046, -0.005155, -0.012633, -1.671893

149391603.723863, 0.065917, -0.056902, -0.033152, 0.059555, 0.000000, 0.997629, -1.292434, 19.418707, 58.235039, -0.004460, -0.014142, -1.675001

149391603.724887, 0.083965, -0.051817, -0.043816, 0.029778, 0.000000, 0.997629, -1.229204, 19.422182, 58.246231, -0.003528, -0.014979, -1.676385

149391603.725945, 0.086682, -0.033384, -0.038409, 0.029778, 0.000000, 0.997629, -1.137548, 19.486187, 58.208538, -0.002559, -0.015624, -1.677598

149391603.726939, 0.081568, -0.015638, -0.024743, 0.014889, 0.000000, 0.997629, -1.064223, 19.537392, 58.178383, -0.001710, -0.015763, -1.677675

149391603.728010, 0.075067, 0.005622, -0.018541, 0.014889, 0.000000, 0.997629, -1.005562, 19.578356, 58.154259, -0.000885, -0.015687, -1.677640

149391603.729009, 0.062124, 0.011184, -0.016058, 0.029778, 0.000000, 0.982041, -0.958634, 19.611126, 58.134960, -0.000261, -0.015871, -1.678417

149391603.730046, 0.064704, 0.006763, -0.019607, 0.029778, 0.000000, 0.982041, -0.921092, 19.637342, 58.119522, 0.000401, -0.016091, -1.679179

149391603.731071, 0.074704, -0.003546, -0.026968, 0.029778, 0.000000, 0.997629, -0.891058, 19.658316, 58.107170, 0.001144, -0.016401, -1.679936

149391603.732095, 0.077317, -0.001677, -0.035370, 0.029778, 0.000000, 0.997629, -0.867030, 19.675095, 58.097290, 0.001901, -0.016685, -1.680736

149391603.733139, 0.088546, 0.010617, -0.039111, -0.000000, 0.000000, 0.997629, -0.868345, 19.729334, 58.089386, 0.002765, -0.016244, -1.679816

149391603.734180, 0.082496, 0.039098, -0.021244, -0.000000, 0.000000, 0.997629, -0.869397, 19.772724, 58.083061, 0.003544, -0.015522, -1.678730

149391603.735205, 0.074181, 0.060401, -0.000764, -0.000000, 0.000000, 0.982041, -0.870238, 19.807438, 58.078003, 0.004209, -0.014608, -1.677454

149391603.736252, 0.061556, 0.075874, 0.025565, -0.000000, 0.000000, 0.982041, -0.788765, 19.814800, 58.027306, 0.004743, -0.013542, -1.675850

149391603.737287, 0.058467, 0.074276, 0.034893, -0.000000, 0.000000, 0.966453, -0.723588, 19.820690, 57.986748, 0.005229, -0.012523, -1.674120

149391603.738319, 0.034511, 0.076002, 0.038046, -0.000000, 0.000000, 0.966453, -0.671445, 19.825401, 57.954300, 0.005460, -0.011509, -1.672341

149391603.739309, 0.007772, 0.071113, 0.036348, -0.000000, 0.000000, 0.950865, -0.629731, 19.869987, 57.951668, 0.005415, -0.010596, -1.670587

149391603.740359, -0.004950, 0.063037, 0.021829, -0.000000, 0.000000, 0.950865, -0.657969, 19.905657, 57.949562, 0.005247, -0.009739, -1.669023

149391603.741404, -0.032055, 0.059318, 0.003728, -0.000000, 0.031033, 0.966453, -0.680560, 19.934191, 57.947876, 0.005450, -0.008921, -1.667773

149391603.742419, -0.055001, 0.061359, -0.007115, -0.000000, 0.031033, 0.966453, -0.698632, 19.957018, 57.946529, 0.005432, -0.008117, -1.666676

149391603.743472, -0.073022, 0.071132, -0.008642, -0.000000, 0.046549, 1.013217, -0.733626, 19.995689, 57.922127, 0.005485, -0.007199, -1.665694

149391603.744497, -0.084342, 0.082492, -0.017729, -0.000000, 0.046549, 1.013217, -0.761622, 20.026627, 57.902603, 0.005444, -0.006204, -1.664850

149391603.745512, -0.096559, 0.095626, -0.028419, -0.015630, 0.000000, 0.982041, -0.784018, 20.051376, 57.886986, 0.004355, -0.004814, -1.663109

149391603.746551, -0.098712, 0.090921, -0.032306, -0.015630, 0.000000, 0.982041, -0.822471, 20.030359, 57.944466, 0.003245, -0.003475, -1.661488

149391603.747579, -0.070322, 0.061798, -0.030729, -0.031260, 0.000000, 0.997629, -0.853234, 20.013546, 57.990448, 0.002426, -0.002160, -1.659019

149391603.748622, -0.035054, 0.028504, -0.037258, -0.031260, 0.000000, 0.997629, -0.877844, 20.000095, 58.027233, 0.001976, -0.001202, -1.656695

149391603.749662, -0.002921, -0.002296, -0.029596, -0.000000, 0.015516, 0.966453, -0.918069, 19.928110, 58.010014, 0.002227, -0.001196, -1.656245

149391603.750643, 0.020762, -0.016300, -0.017611, -0.000000, 0.015516, 0.966453, -0.950248, 19.870522, 57.996239, 0.002703, -0.001324, -1.655709

149391603.751713, 0.027202, -0.011771, -0.018436, -0.015630, 0.015516, 0.982041, -0.975992, 19.824451, 57.985218, 0.003236, -0.001091, -1.654258

149391603.752713, 0.017958, -0.008533, -0.016852, -0.015630, 0.015516, 0.982041, -0.996587, 19.787594, 57.976402, 0.003650, -0.000825, -1.652829

149391603.753754, 0.005321, -0.000879, 0.003536, -0.015630, 0.015516, 0.982041, -0.951454, 19.778517, 57.992676, 0.003934, -0.000490, -1.651180

149391603.754817, 0.024644, 0.002429, 0.019607, -0.031260, 0.000000, 0.997629, -0.915347, 19.771255, 58.005692, 0.004073, 0.000165, -1.648455

149391603.755831, 0.021733, 0.004471, 0.013214, -0.031260, 0.000000, 0.997629, -0.886462, 19.765446, 58.016106, 0.004170, 0.000826, -1.645828

149391603.756861, 0.038917, -0.001902, 0.019215, -0.000000, 0.000000, 0.966453, -0.863354, 19.760798, 58.071083, 0.004479, 0.000788, -1.645007

149391603.757894, 0.041387, -0.014719, 0.036153, -0.000000, 0.000000, 0.966453, -0.844867, 19.757080, 58.115067, 0.004809, 0.000620, -1.644012

149391603.758889, 0.050382, -0.031154, 0.055425, -0.015630, 0.000000, 0.982041, -0.830078, 19.754107, 58.150253, 0.005193, 0.000615, -1.641911

149391603.759953, 0.050817, -0.043953, 0.065620, -0.015630, 0.000000, 0.982041, -0.838783, 19.792543, 58.108429, 0.005608, 0.000455, -1.639719

149391603.760951, 0.068883, -0.050503, 0.069920, 0.014889, -0.015483, 0.966453, -0.845747, 19.823292, 58.074970, 0.005847, -0.000357, -1.639332

149391603.762001, 0.074609, -0.053027, 0.076820, 0.014889, -0.015483, 0.966453, -0.851318, 19.847891, 58.048203, 0.006175, -0.001205, -1.638849

149391603.763015, 0.078121, -0.041446, 0.068027, 0.014889, 0.000000, 0.950865, -0.773630, 19.928795, 58.026791, 0.006824, -0.001909, -1.638499

149391603.764085, 0.054350, -0.018746, 0.066295, 0.014889, 0.000000, 0.950865, -0.711479, 19.993519, 58.009659, 0.007254, -0.002384, -1.638069

149391603.765094, 0.022110, -0.000411, 0.066993, 0.029778, 0.000000, 0.935277, -0.661758, 20.045298, 57.995956, 0.007310, -0.002978, -1.638551

149391603.766136, 0.021345, 0.006474, 0.063489, 0.029778, 0.000000, 0.935277, -0.621982, 20.086721, 57.984993, 0.007364, -0.003489, -1.638994

149391603.767162, -0.003622, 0.010823, 0.064844, 0.014889, 0.000000, 0.919689, -0.508015, 20.099451, 58.022869, 0.007177, -0.003639, -1.638415

149391603.768206, -0.028961, 0.018668, 0.073346, 0.014889, 0.000000, 0.919689, -0.416842, 20.109636, 58.053169, 0.006735, -0.003704, -1.637659

149391603.769235, -0.042400, 0.018363, 0.072429, 0.044666, 0.031033, 0.966453, -0.343903, 20.117785, 58.077412, 0.006770, -0.004397, -1.638894

149391603.770225, -0.057654, 0.011398, 0.059841, 0.044666, 0.031033, 0.966453, -0.347162, 20.144711, 58.026833, 0.006673, -0.005150, -1.640250

149391603.771259, -0.068101, 0.016540, 0.038847, 0.029778, 0.031033, 0.950865, -0.349768, 20.166250, 57.986370, 0.006488, -0.005521, -1.640839

149391603.772316, -0.073843, 0.027255, 0.024575, 0.029778, 0.031033, 0.950865, -0.351853, 20.183483, 57.953999, 0.006232, -0.005768, -1.641553

149391603.773359, -0.086977, 0.037029, 0.023047, 0.074444, 0.015516, 0.966453, -0.332985, 20.095228, 57.881454, 0.005415, -0.006828, -1.644800

149391603.774375, -0.095910, 0.042528, 0.036316, 0.074444, 0.015516, 0.966453, -0.317891, 20.024624, 57.823421, 0.004550, -0.007823, -1.647853

149391603.775384, -0.109738, 0.039839, 0.033160, 0.044666, 0.031033, 0.966453, -0.305815, 19.968142, 57.776993, 0.003980, -0.008221, -1.649255

149391603.776410, -0.092179, 0.039598, 0.020801, 0.044666, 0.031033, 0.966453, -0.296155, 19.943363, 57.856468, 0.003581, -0.008606, -1.650747

149391603.777473, -0.083321, 0.046623, 0.019579, 0.014889, 0.000000, 0.997629, -0.308962, 19.923540, 57.920052, 0.002641, -0.008248, -1.650119

149391603.778502, -0.073793, 0.059994, 0.023054, 0.014889, 0.000000, 0.997629, -0.319209, 19.907682, 57.970917, 0.001844, -0.007778, -1.649487

149391603.779520, -0.063568, 0.065608, 0.028548, 0.014889, 0.015516, 0.997629, -0.327406, 19.894997, 58.011608, 0.001483, -0.007264, -1.648886

149391603.780562, -0.049672, 0.070506, 0.044691, 0.014889, 0.015516, 0.997629, -0.251818, 19.864439, 58.067486, 0.001255, -0.006695, -1.648048

149391603.781618, -0.042945, 0.061247, 0.064681, 0.014889, 0.015516, 0.997629, -0.191348, 19.839993, 58.112190, 0.001094, -0.006223, -1.646954

149391603.782632, -0.042938, 0.040523, 0.100694, 0.014889, 0.015516, 1.013217, -0.142972, 19.820436, 58.147953, 0.000948, -0.005988, -1.645486

149391603.783654, -0.041436, 0.024122, 0.124289, 0.014889, 0.015516, 1.013217, -0.165880, 19.763975, 58.153236, 0.000814, -0.005918, -1.643830

149391603.784658, -0.011261, 0.020325, 0.107021, -0.000000, 0.031033, 0.997629, -0.184206, 19.718805, 58.157463, 0.001299, -0.005583, -1.641524

149391603.785698, 0.021567, 0.012721, 0.056928, -0.000000, 0.031033, 0.997629, -0.198868, 19.682669, 58.160847, 0.002108, -0.005325, -1.639754

149391603.786764, 0.033372, 0.027702, 0.010580, 0.029778, 0.031033, 1.013217, -0.190060, 19.653761, 58.140228, 0.003017, -0.005527, -1.640391

149391603.787757, 0.041341, 0.052833, 0.003181, 0.029778, 0.031033, 1.013217, -0.183014, 19.630634, 58.123734, 0.003963, -0.005499, -1.641089

149391603.788789, 0.033892, 0.057701, -0.002567, 0.014889, 0.015516, 0.997629, -0.177378, 19.612133, 58.110538, 0.004539, -0.005102, -1.640826

149391603.789834, 0.037365, 0.037350, -0.032413, 0.014889, 0.015516, 0.997629, -0.172868, 19.597332, 58.099983, 0.005145, -0.004913, -1.640871

149391603.790871, 0.031794, 0.016231, -0.038010, -0.000000, 0.000000, 0.982041, -0.169261, 19.585491, 58.138187, 0.005364, -0.004651, -1.640028

149391603.791879, 0.024846, 0.007817, -0.010300, -0.000000, 0.000000, 0.982041, -0.166375, 19.576017, 58.168751, 0.005500, -0.004484, -1.638914

149391603.792922, 0.023426, 0.010941, 0.003372, 0.014889, 0.000000, 0.966453, -0.164066, 19.568439, 58.193199, 0.005630, -0.004591, -1.638600

149391603.793995, 0.023829, 0.004133, 0.012271, 0.014889, 0.000000, 0.966453, -0.141683, 19.603193, 58.142788, 0.005770, -0.004766, -1.638173

149391603.794997, 0.028710, -0.003429, 0.002445, 0.014889, 0.000000, 0.966453, -0.123776, 19.630997, 58.102459, 0.005938, -0.005013, -1.637839

149391603.796023, 0.022723, 0.001427, -0.019135, 0.014889, 0.000000, 0.966453, -0.109450, 19.653238, 58.070194, 0.006050, -0.005206, -1.637712

149391603.797046, 0.010584, 0.007377, -0.036074, 0.029778, 0.000000, 0.982041, -0.139063, 19.630217, 58.044384, 0.006030, -0.005630, -1.638664

149391603.798086, 0.001092, 0.012604, -0.038903, 0.029778, 0.000000, 0.982041, -0.162753, 19.611799, 58.023735, 0.005915, -0.005991, -1.639657

149391603.799109, 0.003461, 0.015328, -0.056921, -0.000000, 0.015516, 0.997629, -0.181705, 19.597065, 58.007217, 0.006143, -0.005709, -1.639045

149391603.800153, 0.001893, 0.028461, -0.058114, -0.000000, 0.015516, 0.997629, -0.073648, 19.666910, 58.063972, 0.006350, -0.005294, -1.638352

149391603.801195, -0.008014, 0.035038, -0.027589, -0.000000, 0.000000, 0.982041, 0.012797, 19.722786, 58.109379, 0.006139, -0.004833, -1.637267

149391603.802213, -0.011134, 0.033702, 0.001397, -0.000000, 0.000000, 0.982041, 0.081953, 19.767487, 58.145702, 0.005902, -0.004404, -1.635839

149391603.803242, -0.024953, 0.030899, 0.021700, -0.000000, 0.000000, 0.966453, 0.137278, 19.803247, 58.174763, 0.005529, -0.004010, -1.634178

149391603.804244, -0.035491, 0.023970, 0.032007, -0.000000, 0.000000, 0.966453, 0.078856, 19.729815, 58.151363, 0.005066, -0.003699, -1.632515

149391603.805282, -0.034744, 0.016887, 0.025652, 0.014889, 0.000000, 0.982041, 0.032119, 19.671068, 58.132645, 0.004613, -0.003759, -1.631882

149391603.806309, -0.024444, -0.001707, 0.009265, 0.014889, 0.000000, 0.982041, -0.005271, 19.624071, 58.117668, 0.004276, -0.004005, -1.631471

149391603.807355, -0.030806, -0.026489, 0.002193, 0.014889, 0.015516, 0.950865, -0.055719, 19.647699, 58.105686, 0.004202, -0.004508, -1.631271

149391603.808392, -0.028962, -0.019652, 0.005735, 0.014889, 0.015516, 0.950865, -0.096078, 19.666601, 58.096100, 0.004150, -0.004930, -1.631082

149391603.809424, -0.024764, 0.011858, 0.013388, 0.014889, 0.015516, 0.950865, -0.128365, 19.681723, 58.088432, 0.004142, -0.005025, -1.630851

149391603.810458, -0.032316, 0.038220, 0.026861, 0.014889, 0.015516, 0.966453, -0.051513, 19.714228, 58.152271, 0.004053, -0.004845, -1.630388

149391603.811460, -0.027150, 0.022166, 0.019119, 0.014889, 0.015516, 0.966453, 0.009969, 19.740232, 58.203342, 0.004026, -0.004838, -1.629954

149391603.812501, -0.008041, -0.023151, -0.003410, 0.029778, 0.015516, 0.982041, 0.059155, 19.761036, 58.244198, 0.004172, -0.005587, -1.630619

149391603.813569, 0.020235, -0.060637, -0.031743, 0.029778, 0.015516, 0.982041, 0.057430, 19.757271, 58.253559, 0.004611, -0.006717, -1.631573

149391603.814543, 0.016221, -0.059959, -0.028085, 0.014889, 0.015516, 0.997629, 0.056051, 19.754259, 58.261047, 0.004988, -0.007451, -1.631495

149391603.815579, -0.014918, -0.023713, 0.012872, 0.014889, 0.015516, 0.997629, 0.054947, 19.751848, 58.267036, 0.005048, -0.007840, -1.631020

149391603.816627, -0.051381, 0.027617, 0.029046, 0.029778, 0.015516, 0.982041, 0.054064, 19.749920, 58.271828, 0.004726, -0.008011, -1.631336

149391603.817669, -0.053888, 0.065308, 0.014680, 0.029778, 0.015516, 0.982041, -0.008251, 19.748377, 58.205688, 0.004388, -0.007794, -1.631857

149391603.818678, -0.050062, 0.073202, -0.004466, -0.000000, 0.000000, 0.982041, -0.058103, 19.747143, 58.152779, 0.003802, -0.006917, -1.630736

149391603.819729, -0.034357, 0.063887, 0.005495, -0.000000, 0.000000, 0.982041, -0.097985, 19.746157, 58.110451, 0.003368, -0.006122, -1.629577

149391603.820754, 0.005044, 0.057778, -0.010387, 0.029778, 0.000000, 1.028805, -0.027209, 19.724958, 58.216534, 0.003346, -0.005997, -1.630235

149391603.821767, 0.078791, 0.068821, -0.079238, 0.029778, 0.000000, 1.028805, 0.029412, 19.708000, 58.301399, 0.004060, -0.005769, -1.631509

149391603.822805, 0.030533, 0.063934, -0.019679, -0.000000, -0.015483, 0.935277, 0.074709, 19.694433, 58.369289, 0.003956, -0.005015, -1.630419

149391603.823835, -0.089113, 0.058701, 0.138310, -0.000000, -0.015483, 0.935277, 0.069874, 19.601948, 58.353630, 0.002637, -0.004339, -1.627759

149391603.824880, -0.053683, 0.032128, 0.089135, 0.014889, 0.046549, 0.982041, 0.066006, 19.527960, 58.341103, 0.002979, -0.004225, -1.626693

149391603.825924, 0.054490, 0.015904, -0.087060, 0.014889, 0.046549, 0.982041, 0.062911, 19.468769, 58.331081, 0.004429, -0.004275, -1.627459

149391603.826937, -0.006756, -0.006856, -0.081639, 0.014889, 0.000000, 0.982041, 0.060435, 19.421415, 58.323067, 0.004278, -0.004558, -1.627985

149391603.827961, 0.001160, -0.050665, -0.029688, 0.014889, 0.000000, 0.982041, 0.058455, 19.424349, 58.270004, 0.004207, -0.005278, -1.627990

149391603.829010, 0.004126, -0.057074, 0.019077, -0.000000, 0.000000, 0.982041, 0.056871, 19.426697, 58.227554, 0.004161, -0.005762, -1.626594

149391603.830003, -0.000745, -0.000557, 0.038409, -0.000000, 0.000000, 0.982041, 0.055603, 19.428574, 58.193596, 0.004065, -0.005656, -1.625047

149391603.831073, 0.012694, 0.074274, 0.023443, 0.074444, 0.031033, 0.982041, 0.075125, 19.450483, 58.236401, 0.004614, -0.006324, -1.628558

149391603.832071, 0.045616, 0.126531, -0.019509, 0.074444, 0.031033, 0.982041, 0.090743, 19.468012, 58.270645, 0.005472, -0.006516, -1.632414

149391603.833108, 0.072188, 0.125309, -0.048220, 0.029778, 0.031033, 1.013217, 0.103237, 19.482035, 58.298038, 0.006704, -0.005703, -1.633492

149391603.834138, 0.089506, 0.088286, -0.037337, 0.029778, 0.031033, 1.013217, 0.051624, 19.534069, 58.273308, 0.008080, -0.005289, -1.634487

149391603.835174, 0.073568, 0.072075, 0.012186, -0.000000, 0.015516, 0.997629, 0.010333, 19.575697, 58.253521, 0.008973, -0.004449, -1.633072

149391603.836186, 0.022086, 0.047833, 0.051996, -0.000000, 0.015516, 0.997629, -0.022700, 19.608999, 58.237694, 0.009319, -0.003886, -1.631331

149391603.837219, 0.000392, 0.010647, -0.014879, -0.000000, 0.015516, 0.997629, -0.069662, 19.533600, 58.248356, 0.009446, -0.003696, -1.630345

149391603.838273, -0.019948, 0.033745, -0.033403, 0.029778, 0.000000, 0.982041, -0.107232, 19.473280, 58.256886, 0.009043, -0.003873, -1.631416

149391603.839280, -0.032685, 0.069214, -0.029710, 0.029778, 0.000000, 0.982041, -0.137288, 19.425024, 58.263710, 0.008531, -0.003713, -1.632446

149391603.840308, -0.001836, 0.089373, -0.072776, 0.029778, 0.015516, 1.028805, -0.161333, 19.386419, 58.269169, 0.008636, -0.003313, -1.633935

149391603.841369, 0.043651, 0.094368, -0.136127, 0.029778, 0.015516, 1.028805, -0.262714, 19.477985, 58.320183, 0.009212, -0.002834, -1.636176

149391603.842409, 0.075416, 0.091314, -0.102835, -0.000000, -0.015483, 0.997629, -0.343819, 19.551239, 58.360996, 0.009488, -0.001849, -1.636243

149391603.843425, 0.057981, 0.072049, 0.046140, -0.000000, -0.015483, 0.997629, -0.408703, 19.609840, 58.393646, 0.009564, -0.001111, -1.634866

149391603.844468, 0.018580, 0.039979, 0.141740, 0.014889, 0.000000, 0.950865, -0.399002, 19.615906, 58.326469, 0.009561, -0.001006, -1.633468

149391603.845518, 0.016096, 0.037343, 0.143839, 0.014889, 0.000000, 0.950865, -0.391240, 19.620758, 58.272728, 0.009533, -0.000929, -1.632059

149391603.846526, -0.012947, 0.049414, 0.096260, 0.014889, 0.015516, 0.966453, -0.385031, 19.624640, 58.229736, 0.009534, -0.000740, -1.631253

149391603.847553, -0.016860, 0.063025, 0.025762, 0.014889, 0.015516, 0.966453, -0.359527, 19.648153, 58.172016, 0.009493, -0.000401, -1.631122

149391603.848560, -0.016206, 0.070967, -0.028601, -0.000000, 0.000000, 0.950865, -0.339124, 19.666964, 58.125839, 0.009144, 0.000305, -1.630536

149391603.849600, -0.021845, 0.077845, -0.053414, -0.000000, 0.000000, 0.950865, -0.322802, 19.682013, 58.088898, 0.008738, 0.001094, -1.630207

149391603.850625, 0.008216, 0.078299, -0.056775, 0.014889, 0.000000, 0.966453, -0.309744, 19.612419, 58.129318, 0.008645, 0.001555, -1.630811

149391603.851667, 0.032262, 0.064990, -0.048403, 0.014889, 0.000000, 0.966453, -0.360907, 19.556744, 58.161655, 0.008800, 0.001885, -1.631384

149391603.852704, 0.051915, 0.051064, -0.020175, 0.014889, 0.031033, 0.966453, -0.401837, 19.512203, 58.187523, 0.009790, 0.002057, -1.631848

149391603.853739, 0.041553, 0.021882, 0.022708, 0.014889, 0.031033, 0.966453, -0.434581, 19.476572, 58.208218, 0.010656, 0.001924, -1.631910

149391603.854767, 0.011376, -0.016552, 0.064987, 0.014889, 0.015516, 0.935277, -0.440240, 19.550108, 58.271423, 0.010888, 0.001393, -1.631509

149391603.855809, -0.013681, -0.036535, 0.081260, 0.014889, 0.015516, 0.935277, -0.444767, 19.608936, 58.321987, 0.010861, 0.000664, -1.630943

149391603.856814, -0.049572, -0.028291, 0.090314, 0.029778, 0.000000, 0.919689, -0.448389, 19.655998, 58.362438, 0.010137, -0.000278, -1.631224

149391603.857837, -0.079027, -0.013044, 0.089010, 0.029778, 0.000000, 0.919689, -0.512895, 19.714056, 58.301502, 0.009123, -0.001054, -1.631549

149391603.858886, -0.088800, -0.005714, 0.065187, -0.000000, 0.000000, 0.982041, -0.564501, 19.760502, 58.252754, 0.008026, -0.001100, -1.630235

149391603.859913, -0.068692, -0.006790, 0.023449, -0.000000, 0.000000, 0.982041, -0.605785, 19.797659, 58.213757, 0.007174, -0.001150, -1.629423

149391603.860947, 0.000947, 0.020394, -0.144539, -0.046891, -0.108382, 0.950865, -0.618276, 19.684528, 58.252529, 0.004707, -0.000099, -1.628052

149391603.861989, 0.013784, 0.062423, -0.077211, -0.046891, -0.108382, 0.950865, -0.628268, 19.594023, 58.283546, 0.002422, 0.001360, -1.626034

149391603.862999, 0.022947, 0.041042, -0.005434, -0.046891, 0.015516, 0.982041, -0.636263, 19.521620, 58.308361, 0.002839, 0.002713, -1.622677

149391603.864044, 0.041600, 0.033002, -0.040901, -0.046891, 0.015516, 0.982041, -0.642658, 19.463697, 58.328213, 0.003449, 0.003971, -1.619750

149391603.865090, 0.045807, 0.015563, -0.053196, -0.046891, 0.015516, 0.997629, -0.668311, 19.498991, 58.344093, 0.004090, 0.005009, -1.617087

149391603.866104, 0.065660, 0.034195, -0.077631, 0.029778, 0.015516, 0.997629, -0.688833, 19.527225, 58.356800, 0.004939, 0.004647, -1.619533

149391603.867132, 0.051720, 0.029887, -0.093039, 0.029778, 0.015516, 0.997629, -0.705251, 19.549814, 58.366962, 0.005640, 0.004255, -1.622108

149391603.868141, 0.072159, -0.014397, -0.095566, -0.015630, 0.015516, 0.997629, -0.677312, 19.567884, 58.351768, 0.006540, 0.004353, -1.621771

149391603.869180, 0.087982, -0.079575, -0.096245, -0.015630, 0.015516, 0.997629, -0.654961, 19.582340, 58.339615, 0.007605, 0.003780, -1.621456

149391603.870250, 0.121885, -0.129055, -0.094107, 0.014889, 0.046549, 0.982041, -0.637080, 19.593906, 58.329891, 0.009669, 0.002042, -1.623253

149391603.871250, 0.140211, -0.153795, -0.090747, 0.014889, 0.046549, 0.982041, -0.663849, 19.643974, 58.252140, 0.011789, 0.000187, -1.624947

149391603.872281, 0.127078, -0.173648, -0.083417, 0.014889, 0.046549, 0.982041, -0.685263, 19.684029, 58.189941, 0.013780, -0.001877, -1.626587

149391603.873313, 0.102643, -0.184338, -0.063869, 0.014889, 0.046549, 0.982041, -0.702395, 19.716072, 58.140182, 0.015488, -0.004009, -1.628018

149391603.874352, 0.067824, -0.184949, -0.031798, 0.044666, 0.015516, 0.997629, -0.654491, 19.802933, 58.170345, 0.016137, -0.006698, -1.630653

149391603.875351, 0.052941, -0.150856, -0.015282, 0.044666, 0.015516, 0.997629, -0.616168, 19.872421, 58.194477, 0.016607, -0.008932, -1.633005

149391603.876412, 0.047640, -0.091468, -0.063698, 0.014889, 0.000000, 0.982041, -0.585510, 19.928011, 58.213783, 0.016776, -0.009995, -1.633910

149391603.877446, 0.044843, -0.043496, -0.089267, 0.014889, 0.000000, 0.982041, -0.560983, 19.972483, 58.229225, 0.016904, -0.010522, -1.635004

149391603.878450, 0.016438, -0.046856, -0.066665, -0.015630, 0.031033, 0.950865, -0.520825, 20.028469, 58.171608, 0.017363, -0.010419, -1.633896

149391603.879513, -0.031150, -0.073976, -0.034464, -0.015630, 0.031033, 0.950865, -0.488699, 20.073257, 58.125515, 0.017323, -0.010633, -1.632486

149391603.880512, -0.070262, -0.073913, -0.008024, 0.014889, 0.000000, 0.966453, -0.462998, 20.109089, 58.088638, 0.016289, -0.011451, -1.632692

149391603.881539, -0.090311, -0.040364, -0.031776, 0.014889, 0.000000, 0.966453, -0.421901, 20.137754, 58.082462, 0.015059, -0.011930, -1.633087

149391603.882621, -0.085420, 0.017894, -0.088814, -0.015630, 0.000000, 0.966453, -0.389023, 20.160686, 58.077522, 0.013838, -0.011177, -1.632231

149391603.883625, -0.070465, 0.071936, -0.134785, -0.015630, 0.000000, 0.966453, -0.362721, 20.179031, 58.073570, 0.012858, -0.009917, -1.631743

149391603.884638, -0.071374, 0.087166, -0.135834, -0.031260, -0.030966, 0.935277, -0.362216, 20.234524, 58.093731, 0.011190, -0.008229, -1.630442

149391603.885688, -0.083027, 0.063803, -0.117725, -0.031260, -0.030966, 0.935277, -0.361811, 20.278917, 58.109859, 0.009408, -0.006784, -1.629038

149391603.886725, -0.073253, 0.022569, -0.106730, -0.000000, 0.000000, 0.982041, -0.361488, 20.314432, 58.122765, 0.008479, -0.006413, -1.629311

149391603.887758, -0.047193, -0.002125, -0.112556, -0.000000, 0.000000, 0.982041, -0.402302, 20.199987, 58.086441, 0.007837, -0.006300, -1.629677

149391603.888776, -0.036631, -0.002379, -0.111083, -0.000000, 0.000000, 1.013217, -0.434953, 20.108431, 58.057381, 0.007320, -0.006192, -1.630041

149391603.889788, -0.038551, 0.003950, -0.093197, -0.000000, 0.000000, 1.013217, -0.461074, 20.035187, 58.034134, 0.006794, -0.006025, -1.630240

149391603.890842, -0.035946, -0.004805, -0.076882, -0.000000, 0.031033, 0.997629, -0.481971, 19.976591, 58.015533, 0.006912, -0.005940, -1.630377

149391603.891874, -0.045654, -0.008889, -0.056128, -0.000000, 0.031033, 0.997629, -0.478152, 19.909306, 58.023979, 0.006935, -0.005900, -1.630284

149391603.892907, -0.059942, -0.007805, -0.035511, -0.000000, 0.031033, 0.997629, -0.475097, 19.855478, 58.030735, 0.006812, -0.005850, -1.629982

149391603.893909, -0.045524, 0.004020, -0.040743, 0.014889, 0.000000, 0.997629, -0.472652, 19.812416, 58.036140, 0.006230, -0.005989, -1.630548

149391603.894976, -0.028419, 0.002141, -0.023739, 0.014889, 0.000000, 0.997629, -0.470697, 19.818783, 58.087112, 0.005809, -0.006143, -1.630949

149391603.895965, -0.016160, -0.003884, -0.009187, 0.029778, -0.015483, 0.997629, -0.469133, 19.823875, 58.127892, 0.005216, -0.006644, -1.631949

149391603.896999, 0.029330, -0.022938, -0.034109, 0.029778, -0.015483, 0.997629, -0.467881, 19.827950, 58.160515, 0.005091, -0.007330, -1.633186

149391603.898088, 0.042765, -0.057139, -0.051331, 0.014889, -0.015483, 0.997629, -0.487417, 19.831209, 58.233261, 0.005140, -0.008088, -1.633793

149391603.899089, 0.076848, -0.088827, -0.052942, 0.014889, -0.015483, 0.997629, -0.503045, 19.833817, 58.291458, 0.005485, -0.009093, -1.634376

149391603.900111, 0.106327, -0.117156, -0.046445, 0.014889, -0.015483, 0.966453, -0.515547, 19.835903, 58.338017, 0.006124, -0.010389, -1.634932

149391603.901154, 0.112759, -0.106018, -0.038590, 0.014889, -0.015483, 0.966453, -0.525549, 19.837572, 58.375263, 0.006838, -0.011569, -1.635417

149391603.902185, 0.102312, -0.070298, -0.018642, 0.029778, 0.000000, 0.966453, -0.513015, 19.838907, 58.335087, 0.007729, -0.012659, -1.636637

149391603.903234, 0.092982, -0.034433, -0.004196, 0.029778, 0.000000, 0.966453, -0.502987, 19.839975, 58.302944, 0.008521, -0.013371, -1.637674

149391603.904228, 0.083251, -0.012479, -0.000819, 0.014889, 0.000000, 0.966453, -0.494965, 19.840830, 58.277229, 0.009162, -0.013533, -1.637747

149391603.905240, 0.081797, -0.007731, 0.007570, 0.014889, 0.000000, 0.966453, -0.488547, 19.943554, 58.186687, 0.009790, -0.013647, -1.637721

149391603.906278, 0.080374, -0.010558, 0.015484, 0.014889, 0.000000, 0.982041, -0.483413, 20.025734, 58.114254, 0.010409, -0.013786, -1.637586

149391603.907303, 0.073599, -0.018409, 0.029211, 0.014889, 0.000000, 0.982041, -0.479305, 20.091478, 58.056305, 0.010936, -0.014002, -1.637310

149391603.908353, 0.057996, -0.029982, 0.038164, 0.029778, -0.015483, 0.950865, -0.414410, 20.103258, 58.103245, 0.010977, -0.014650, -1.637699

149391603.909403, 0.041526, -0.046693, 0.041248, 0.029778, -0.015483, 0.950865, -0.362495, 20.112680, 58.140797, 0.010847, -0.015458, -1.638001

149391603.910416, 0.026898, -0.062155, 0.023934, 0.014889, 0.000000, 0.950865, -0.320962, 20.120218, 58.170837, 0.010893, -0.016083, -1.637649

149391603.911454, -0.004765, -0.076394, 0.006985, 0.014889, 0.000000, 0.950865, -0.267199, 20.105841, 58.124897, 0.010626, -0.016852, -1.637419

149391603.912479, -0.029781, -0.070002, -0.001534, 0.044666, 0.000000, 0.982041, -0.224189, 20.094339, 58.088146, 0.010094, -0.018119, -1.638942

149391603.913530, -0.047094, -0.050588, -0.014957, 0.044666, 0.000000, 0.982041, -0.189781, 20.085138, 58.058746, 0.009392, -0.019179, -1.640538

149391603.914529, -0.067929, -0.043842, -0.019725, 0.014889, 0.015516, 0.966453, -0.162255, 20.077776, 58.035225, 0.008863, -0.019530, -1.640447

149391603.915590, -0.087131, -0.053982, -0.026186, 0.014889, 0.015516, 0.966453, -0.160770, 20.051479, 58.039734, 0.008105, -0.020005, -1.640439

149391603.916581, -0.084698, -0.053743, -0.018459, -0.000000, 0.000000, 0.966453, -0.159582, 20.030441, 58.043339, 0.007112, -0.020130, -1.639387

149391603.917612, -0.062882, -0.048126, 0.010335, -0.000000, 0.000000, 0.966453, -0.158632, 20.013611, 58.046223, 0.006320, -0.020218, -1.638072

149391603.918653, -0.030761, -0.047412, 0.042409, 0.014889, 0.000000, 0.997629, -0.055190, 20.061371, 58.071854, 0.005870, -0.020600, -1.637214

149391603.919692, -0.026226, -0.030268, 0.061251, 0.014889, 0.000000, 0.997629, 0.027564, 20.099579, 58.092358, 0.005471, -0.020800, -1.636098

149391603.920706, -0.024478, -0.014381, 0.068333, 0.014889, 0.000000, 0.997629, 0.093767, 20.130146, 58.108761, 0.005103, -0.020830, -1.634882

149391603.921755, -0.022169, 0.002067, 0.064204, 0.014889, 0.000000, 0.950865, 0.085120, 20.134192, 58.121883, 0.004758, -0.020710, -1.633759

149391603.922780, -0.017815, -0.000667, 0.054779, 0.014889, 0.000000, 0.950865, 0.078202, 20.137428, 58.132381, 0.004472, -0.020619, -1.632775

149391603.923840, -0.030895, 0.003832, 0.051832, 0.029778, 0.031033, 0.982041, 0.072669, 20.140017, 58.140781, 0.004679, -0.020783, -1.632855

149391603.924831, -0.033235, 0.012123, 0.055226, 0.029778, 0.031033, 0.982041, 0.068241, 20.142088, 58.147499, 0.004880, -0.020867, -1.632940

149391603.925896, -0.046289, 0.021436, 0.062734, 0.029778, 0.000000, 0.966453, 0.064700, 20.143745, 58.152874, 0.004283, -0.020844, -1.632751

149391603.926893, -0.042026, 0.025171, 0.062908, 0.029778, 0.000000, 0.966453, 0.061866, 20.145071, 58.157173, 0.003772, -0.020798, -1.632609

149391603.927918, -0.036955, 0.012980, 0.075637, 0.029778, 0.000000, 0.982041, 0.059600, 20.146132, 58.160614, 0.003307, -0.020860, -1.632299

149391603.928972, -0.040064, -0.001645, 0.086304, 0.029778, 0.000000, 0.982041, 0.078323, 20.167387, 58.163368, 0.002807, -0.021068, -1.631844

149391603.930018, -0.044303, -0.006395, 0.092560, 0.029778, 0.015516, 0.982041, 0.093301, 20.184393, 58.165569, 0.002590, -0.021325, -1.631412

149391603.931034, -0.046660, 0.006896, 0.088219, 0.029778, 0.015516, 0.982041, 0.105284, 20.197996, 58.167332, 0.002368, -0.021441, -1.631045

149391603.932081, -0.043584, 0.015123, 0.077392, 0.029778, 0.015516, 0.982041, 0.176479, 20.127247, 58.215389, 0.002171, -0.021468, -1.630704

149391603.933107, -0.064195, 0.044406, 0.057523, 0.029778, 0.015516, 0.982041, 0.233435, 20.070648, 58.253834, 0.001783, -0.021203, -1.630531

149391603.934115, -0.092744, 0.091311, 0.033588, 0.014889, -0.015483, 0.982041, 0.279000, 20.025368, 58.284592, 0.000507, -0.020184, -1.629575

149391603.935157, -0.098266, 0.098060, 0.061286, 0.014889, -0.015483, 0.982041, 0.274379, 19.927919, 58.239227, -0.000835, -0.019087, -1.628353

149391603.936167, -0.088124, 0.091510, 0.091092, -0.000000, 0.000000, 0.982041, 0.270683, 19.849960, 58.202934, -0.001719, -0.017798, -1.626029

149391603.937217, -0.060854, 0.067458, 0.099640, -0.000000, 0.000000, 0.982041, 0.267725, 19.787594, 58.173901, -0.002340, -0.016744, -1.623629

149391603.938240, -0.023095, 0.046901, 0.089768, -0.000000, 0.000000, 0.950865, 0.265360, 19.737700, 58.150673, -0.002550, -0.015935, -1.621405

149391603.939303, -0.003173, 0.034851, 0.085187, -0.000000, 0.000000, 0.950865, 0.222394, 19.697784, 58.225388, -0.002556, -0.015250, -1.619281

149391603.940284, -0.003704, 0.033818, 0.077414, 0.029778, 0.000000, 0.982041, 0.188022, 19.665854, 58.285160, -0.002556, -0.015225, -1.619169

149391603.941361, -0.003626, 0.030116, 0.074289, 0.029778, 0.000000, 0.982041, 0.160524, 19.640308, 58.332977, -0.002560, -0.015208, -1.619052

149391603.942370, -0.002952, 0.025894, 0.073024, 0.014889, 0.015516, 0.982041, 0.200135, 19.640280, 58.347904, -0.002233, -0.014947, -1.618100

149391603.943406, -0.005282, 0.013389, 0.071786, 0.014889, 0.015516, 0.982041, 0.231824, 19.640257, 58.359848, -0.001937, -0.014811, -1.617128

149391603.944415, 0.011274, -0.000348, 0.063397, -0.000000, 0.000000, 0.950865, 0.257174, 19.640240, 58.369404, -0.001805, -0.014516, -1.615313

149391603.945446, 0.009841, -0.004527, 0.070734, -0.000000, 0.000000, 0.950865, 0.277455, 19.579000, 58.330399, -0.001688, -0.014270, -1.613424

149391603.946509, 0.005565, -0.017966, 0.075621, 0.044666, 0.000000, 0.982041, 0.293680, 19.530010, 58.299194, -0.001631, -0.015080, -1.614183

149391603.947521, 0.016511, -0.025960, 0.053098, 0.044666, 0.000000, 0.982041, 0.306659, 19.490818, 58.274231, -0.001466, -0.015945, -1.615179

149391603.948546, 0.024535, -0.045147, 0.012811, 0.044666, 0.000000, 0.982041, 0.275970, 19.439054, 58.300907, -0.001214, -0.016989, -1.616590

149391603.949605, 0.027895, -0.066528, -0.013456, 0.014889, 0.000000, 0.904101, 0.251419, 19.397644, 58.322250, -0.000898, -0.017669, -1.616544

149391603.950585, 0.021627, -0.090542, 0.000581, 0.014889, 0.000000, 0.904101, 0.231778, 19.364515, 58.339325, -0.000673, -0.018515, -1.616376

149391603.951647, -0.024576, -0.110463, 0.060968, 0.044666, -0.015483, 0.919689, 0.216066, 19.338013, 58.352985, -0.001287, -0.020251, -1.617377

149391603.952672, -0.077721, -0.091221, 0.155346, 0.044666, -0.015483, 0.919689, 0.265105, 19.378035, 58.363911, -0.002431, -0.021718, -1.617379

149391603.953697, -0.096047, -0.040519, 0.173367, 0.074444, 0.031033, 1.028805, 0.304336, 19.410053, 58.372654, -0.002871, -0.023184, -1.619087

149391603.954760, -0.018975, 0.025815, 0.031877, 0.074444, 0.031033, 1.028805, 0.335721, 19.435667, 58.379646, -0.002500, -0.023948, -1.622135

149391603.955747, -0.028444, 0.076517, -0.036235, 0.014889, -0.015483, 0.997629, 0.360828, 19.333710, 58.291946, -0.003029, -0.023032, -1.621958

149391603.956814, -0.040403, 0.082979, -0.047731, 0.014889, -0.015483, 0.997629, 0.380915, 19.252144, 58.221786, -0.003692, -0.022007, -1.621915

149391603.957835, -0.041347, 0.057910, -0.043138, 0.044666, 0.000000, 0.982041, 0.396984, 19.186892, 58.165657, -0.004038, -0.021900, -1.623656

149391603.958860, -0.053632, 0.039947, -0.011433, 0.044666, 0.000000, 0.982041, 0.409839, 19.175507, 58.260696, -0.004508, -0.021973, -1.625037

149391603.959869, -0.072237, 0.040302, 0.024389, 0.044666, -0.015483, 0.982041, 0.420123, 19.166397, 58.336727, -0.005466, -0.022037, -1.625914

149391603.960910, -0.068025, 0.036763, 0.033145, 0.044666, -0.015483, 0.982041, 0.428351, 19.159111, 58.397552, -0.006386, -0.022123, -1.626671

149391603.961926, -0.034428, 0.028210, 0.028258, -0.000000, 0.000000, 0.997629, 0.434933, 19.153282, 58.446213, -0.006624, -0.021393, -1.624821

149391603.962998, 0.008456, 0.004593, 0.024673, -0.000000, 0.000000, 0.997629, 0.440198, 19.148619, 58.485142, -0.006425, -0.020910, -1.623023

149391603.964033, 0.029226, -0.010373, 0.020397, 0.044666, 0.000000, 0.982041, 0.444410, 19.144888, 58.516285, -0.006019, -0.021509, -1.624072

149391603.965019, 0.046850, -0.007164, 0.010400, 0.044666, 0.000000, 0.982041, 0.447780, 19.141903, 58.541199, -0.005463, -0.022059, -1.625206

149391603.966049, 0.045863, 0.002554, 0.005098, 0.029778, 0.000000, 0.997629, 0.471013, 19.119106, 58.467834, -0.004893, -0.022190, -1.625396

149391603.967118, 0.037423, 0.016853, -0.003083, 0.029778, 0.000000, 0.997629, 0.489599, 19.100870, 58.409142, -0.004403, -0.022167, -1.625647

149391603.968137, 0.019293, 0.034139, -0.006905, 0.029778, 0.000000, 0.966453, 0.504467, 19.086281, 58.362190, -0.004122, -0.021999, -1.625973

149391603.969159, 0.013803, 0.036410, -0.012740, 0.029778, 0.000000, 0.966453, 0.475289, 19.054201, 58.347954, -0.003900, -0.021812, -1.626384

149391603.970178, 0.027267, 0.031757, -0.016059, 0.014889, 0.000000, 0.966453, 0.451947, 19.028538, 58.336563, -0.003548, -0.021366, -1.625903

149391603.971212, 0.040447, 0.023314, -0.026784, 0.014889, 0.000000, 0.966453, 0.433273, 19.008007, 58.327450, -0.003063, -0.021010, -1.625563

149391603.972278, 0.043483, 0.008770, -0.025921, 0.014889, 0.015516, 0.982041, 0.479943, 19.011990, 58.366810, -0.002228, -0.020797, -1.625192

149391603.973290, 0.046454, -0.004271, -0.026871, 0.014889, 0.015516, 0.982041, 0.517279, 19.015177, 58.398296, -0.001403, -0.020721, -1.624784

149391603.974322, 0.033815, -0.003883, -0.030491, 0.014889, 0.000000, 0.966453, 0.547148, 19.017725, 58.423485, -0.001028, -0.020654, -1.624383

149391603.975340, 0.034598, 0.014737, -0.035530, 0.014889, 0.000000, 0.966453, 0.571043, 19.019764, 58.443638, -0.000657, -0.020402, -1.624013

149391603.976387, 0.057192, 0.020407, -0.042556, 0.014889, 0.000000, 0.997629, 0.610696, 19.082621, 58.413109, -0.000050, -0.020083, -1.623659

149391603.977403, 0.073330, -0.003046, -0.034484, 0.014889, 0.000000, 0.997629, 0.642417, 19.132906, 58.388687, 0.000686, -0.020010, -1.623185

149391603.978450, 0.098099, -0.034975, -0.034356, 0.014889, 0.000000, 0.997629, 0.667795, 19.173134, 58.369148, 0.001683, -0.020268, -1.622702

149391603.979475, 0.117860, -0.065036, -0.030643, 0.014889, 0.015516, 0.982041, 0.647024, 19.184908, 58.306870, 0.003153, -0.020813, -1.622238

149391603.980534, 0.128834, -0.080411, -0.067672, 0.014889, 0.015516, 0.982041, 0.630408, 19.194326, 58.257050, 0.004756, -0.021528, -1.622197

149391603.981525, 0.117451, -0.079615, -0.116181, 0.014889, 0.000000, 0.982041, 0.617115, 19.201862, 58.217194, 0.005824, -0.022170, -1.622578

149391603.982539, 0.079995, -0.074351, -0.066792, 0.014889, 0.000000, 0.982041, 0.647553, 19.228298, 58.301926, 0.006514, -0.022767, -1.622456

149391603.983588, 0.097099, -0.059995, -0.126351, 0.074444, 0.015516, 0.966453, 0.671903, 19.249447, 58.369713, 0.007653, -0.024467, -1.626849

149391603.984625, 0.095267, -0.022733, -0.261352, 0.074444, 0.015516, 0.966453, 0.691384, 19.266367, 58.423943, 0.008779, -0.025733, -1.632491

149391603.985679, 0.014327, 0.018806, -0.186521, 0.029778, 0.000000, 0.950865, 0.665895, 19.341127, 58.397354, 0.008801, -0.025634, -1.634383

149391603.986664, -0.038300, 0.024988, -0.063890, 0.029778, 0.000000, 0.950865, 0.645505, 19.400936, 58.376083, 0.008272, -0.025500, -1.634944

149391603.987716, -0.048258, 0.026555, -0.024572, 0.029778, 0.000000, 0.982041, 0.629192, 19.448782, 58.359066, 0.007616, -0.025321, -1.635084

149391603.988751, -0.050531, 0.049318, -0.020766, 0.029778, 0.000000, 0.982041, 0.616142, 19.487059, 58.345451, 0.006956, -0.024920, -1.635187

149391603.989786, -0.050663, 0.063529, -0.015844, 0.014889, 0.000000, 0.997629, 0.605702, 19.456455, 58.381210, 0.006302, -0.024077, -1.634328

149391603.990792, -0.052288, 0.062491, -0.010128, 0.014889, 0.000000, 0.997629, 0.597350, 19.431973, 58.409817, 0.005659, -0.023280, -1.633435

149391603.991852, -0.064044, 0.060278, -0.001244, 0.044666, 0.000000, 0.966453, 0.590668, 19.412388, 58.432701, 0.004871, -0.023110, -1.634356

149391603.992867, -0.085719, 0.063793, -0.003610, 0.044666, 0.000000, 0.966453, 0.585323, 19.396719, 58.381035, 0.003910, -0.022935, -1.635286

149391603.993915, -0.079429, 0.062151, -0.019381, 0.014889, -0.015483, 0.966453, 0.581047, 19.384184, 58.339703, 0.002697, -0.022154, -1.634499

149391603.994952, -0.053837, 0.032438, -0.022860, 0.014889, -0.015483, 0.966453, 0.577626, 19.374157, 58.306637, 0.001778, -0.021698, -1.633767

149391603.995951, 0.037894, -0.074989, -0.007129, -0.000000, -0.015483, 0.966453, 0.554353, 19.345726, 58.303509, 0.001775, -0.022014, -1.632028

149391603.997003, 0.060419, -0.132912, -0.016248, -0.000000, -0.015483, 0.966453, 0.535734, 19.322981, 58.301006, 0.002026, -0.022961, -1.630440

149391603.998017, 0.057365, -0.107561, -0.015637, 0.059555, 0.015516, 0.966453, 0.520839, 19.304785, 58.299004, 0.002840, -0.024813, -1.632726

149391603.999054, 0.026556, -0.041310, -0.023680, 0.059555, 0.015516, 0.966453, 0.508923, 19.290228, 58.297401, 0.003343, -0.025980, -1.635066

149391604.000089, -0.014678, -0.002520, 0.012666, 0.014889, -0.015483, 0.982041, 0.499391, 19.278584, 58.296120, 0.002804, -0.025798, -1.634026

149391604.001145, -0.080448, 0.020556, 0.117050, 0.014889, -0.015483, 0.982041, 0.491765, 19.269268, 58.295097, 0.001564, -0.025383, -1.631931

149391604.002141, -0.072177, 0.023711, 0.140599, 0.029778, 0.000000, 0.997629, 0.485664, 19.261816, 58.294277, 0.000794, -0.025241, -1.630635

149391604.003153, -0.009362, 0.018727, 0.050630, 0.029778, 0.000000, 0.997629, 0.480783, 19.235445, 58.270298, 0.000672, -0.025148, -1.630242

149391604.004198, 0.008178, 0.015044, 0.024448, 0.029778, 0.000000, 0.997629, 0.476878, 19.214348, 58.251114, 0.000736, -0.025087, -1.630112

149391604.005219, 0.003520, -0.008595, 0.037089, -0.000000, 0.000000, 0.997629, 0.473755, 19.197472, 58.235767, 0.000727, -0.024673, -1.628061

149391604.006258, 0.029161, -0.033829, 0.017172, -0.000000, 0.000000, 0.997629, 0.491792, 19.224787, 58.270138, 0.000985, -0.024525, -1.626229

149391604.007305, 0.039311, -0.029230, -0.026545, 0.029778, 0.000000, 0.997629, 0.506222, 19.246639, 58.297634, 0.001375, -0.024931, -1.626673

149391604.008317, 0.042968, -0.018150, -0.073826, 0.029778, 0.000000, 0.997629, 0.517766, 19.264120, 58.319630, 0.001791, -0.025208, -1.627556

149391604.009366, 0.054323, -0.028233, -0.100976, 0.014889, 0.000000, 0.982041, 0.568074, 19.278105, 58.267258, 0.002336, -0.025296, -1.627787

149391604.010405, 0.042714, -0.047372, -0.073435, 0.014889, 0.000000, 0.982041, 0.608320, 19.289293, 58.225357, 0.002739, -0.025575, -1.627681

149391604.011447, 0.020287, -0.065511, -0.012089, 0.014889, 0.000000, 0.982041, 0.640517, 19.298244, 58.191837, 0.002890, -0.026036, -1.626918

149391604.012444, -0.002865, -0.060544, 0.016272, 0.014889, 0.000000, 0.982041, 0.666275, 19.305405, 58.165024, 0.002795, -0.026412, -1.625861

149391604.013454, -0.025828, -0.023389, 0.018022, 0.044666, 0.000000, 0.997629, 0.666344, 19.290724, 58.166893, 0.002470, -0.027010, -1.626583

149391604.014506, -0.029470, 0.005807, 0.023623, 0.044666, 0.000000, 0.997629, 0.666400, 19.278980, 58.168388, 0.002103, -0.027304, -1.627225

149391604.015542, -0.027355, 0.006881, 0.035684, 0.014889, -0.015483, 0.982041, 0.666445, 19.269585, 58.169586, 0.001453, -0.027000, -1.625941

149391604.016574, -0.016314, -0.005224, 0.039119, 0.014889, -0.015483, 0.982041, 0.687017, 19.282476, 58.193871, 0.000927, -0.026824, -1.624628

149391604.017593, -0.019857, 0.006248, 0.034408, 0.014889, 0.000000, 0.997629, 0.703475, 19.292789, 58.213295, 0.000696, -0.026524, -1.623379

149391604.018655, -0.014655, 0.015685, 0.022919, 0.014889, 0.000000, 0.997629, 0.716641, 19.301041, 58.228836, 0.000518, -0.026129, -1.622247

149391604.019659, -0.016488, 0.023015, 0.013757, 0.044666, -0.015483, 0.950865, 0.809319, 19.307642, 58.264591, 0.000008, -0.026312, -1.622966

149391604.020692, -0.026606, 0.027913, 0.010776, 0.044666, -0.015483, 0.950865, 0.883462, 19.312923, 58.293198, -0.000598, -0.026436, -1.623625

149391604.021709, -0.020364, 0.023438, 0.004569, 0.014889, 0.000000, 0.966453, 0.942776, 19.317148, 58.316082, -0.000796, -0.025981, -1.622477

149391604.022768, 0.004582, 0.005902, -0.004796, 0.014889, 0.000000, 0.966453, 0.969691, 19.198078, 58.334389, -0.000737, -0.025708, -1.621419

149391604.023793, 0.017411, 0.003458, -0.014876, 0.059555, 0.000000, 0.950865, 0.991223, 19.102823, 58.349033, -0.000575, -0.026410, -1.623320

149391604.024807, 0.014353, 0.007571, -0.022934, 0.059555, 0.000000, 0.950865, 1.008448, 19.026619, 58.360752, -0.000445, -0.027058, -1.625256

149391604.025856, 0.007328, 0.010931, -0.030265, 0.029778, 0.000000, 0.997629, 1.022229, 18.965654, 58.370125, -0.000352, -0.027001, -1.625236

149391604.026878, -0.000899, 0.025950, -0.033814, 0.029778, 0.000000, 0.997629, 1.012717, 18.998516, 58.354301, -0.000344, -0.026798, -1.625253

149391604.027894, -0.020016, 0.034972, -0.027720, 0.014889, 0.000000, 0.966453, 1.005107, 19.024805, 58.341640, -0.000536, -0.026222, -1.624329

149391604.028919, -0.009429, 0.039020, -0.024445, 0.014889, 0.000000, 0.966453, 0.999019, 19.045837, 58.331512, -0.000620, -0.025613, -1.623398

149391604.029975, -0.005642, 0.032517, -0.023632, 0.029778, 0.000000, 0.966453, 0.912004, 19.062662, 58.300087, -0.000659, -0.025380, -1.623518

149391604.031002, -0.004926, 0.032730, -0.023732, 0.029778, 0.000000, 0.966453, 0.842391, 19.076122, 58.274944, -0.000689, -0.025159, -1.623701

149391604.032024, -0.010802, 0.032937, -0.023830, 0.029778, 0.000000, 0.966453, 0.786702, 19.086891, 58.254829, -0.000778, -0.024942, -1.623937

149391604.033045, -0.006987, 0.031945, -0.020937, 0.014889, 0.000000, 0.966453, 0.783222, 19.013872, 58.262062, -0.000831, -0.024431, -1.623204

149391604.034069, 0.009008, 0.022601, -0.025579, 0.014889, 0.000000, 0.966453, 0.780439, 18.955458, 58.267849, -0.000722, -0.024024, -1.622536

149391604.035137, 0.021675, 0.018239, -0.030423, 0.014889, 0.000000, 0.966453, 0.778212, 18.908726, 58.272480, -0.000477, -0.023661, -1.621946

149391604.036166, 0.038262, 0.004101, -0.037257, 0.014889, 0.000000, 0.966453, 0.776431, 18.871340, 58.276184, -0.000076, -0.023454, -1.621428

149391604.037188, 0.057199, -0.000786, -0.044893, 0.044666, -0.015483, 1.028805, 0.775006, 18.841433, 58.279148, 0.000201, -0.023855, -1.622629

149391604.038206, 0.062872, -0.004956, -0.047536, 0.044666, -0.015483, 1.028805, 0.773866, 18.817507, 58.281517, 0.000528, -0.024289, -1.623834

149391604.039233, 0.060734, -0.011065, -0.038678, 0.029778, -0.015483, 0.966453, 0.772953, 18.798365, 58.283413, 0.000817, -0.024530, -1.624189

149391604.040289, 0.049588, -0.017709, -0.032781, 0.029778, -0.015483, 0.966453, 0.813296, 18.864685, 58.308254, 0.001003, -0.024839, -1.624444

149391604.041320, 0.038677, -0.017934, -0.026709, 0.044666, 0.000000, 0.982041, 0.845571, 18.917740, 58.328129, 0.001372, -0.025432, -1.625545

149391604.042338, 0.035770, -0.020247, -0.024353, 0.044666, 0.000000, 0.982041, 0.871390, 18.960184, 58.344028, 0.001700, -0.026033, -1.626566

149391604.043359, 0.025150, -0.023708, -0.023840, 0.029778, 0.000000, 0.950865, 0.892046, 18.973732, 58.333424, 0.001924, -0.026376, -1.626673

149391604.044383, 0.015052, -0.022312, -0.018853, 0.029778, 0.000000, 0.950865, 0.908571, 18.984570, 58.324940, 0.002042, -0.026698, -1.626712

149391604.045446, 0.012941, -0.012573, -0.022941, 0.044666, 0.015516, 0.982041, 0.921790, 18.993240, 58.318153, 0.002451, -0.027209, -1.627752

149391604.046483, -0.004973, 0.006828, -0.030830, 0.044666, 0.015516, 0.982041, 0.870757, 19.040993, 58.336048, 0.002668, -0.027508, -1.628898

149391604.047505, -0.011147, 0.023428, -0.027789, 0.044666, 0.000000, 0.982041, 0.829930, 19.079195, 58.350361, 0.002504, -0.027631, -1.629918

149391604.048523, -0.015696, 0.035194, -0.025709, 0.044666, 0.000000, 0.982041, 0.797269, 19.109756, 58.361813, 0.002298, -0.027635, -1.630927

149391604.049546, -0.018954, 0.026679, -0.023972, 0.029778, -0.015483, 0.966453, 0.771140, 19.134207, 58.370975, 0.001749, -0.027432, -1.630978

149391604.050597, -0.009286, 0.009971, -0.021673, 0.029778, -0.015483, 0.966453, 0.770773, 19.133358, 58.331657, 0.001305, -0.027398, -1.631009

149391604.051634, -0.002512, -0.002498, -0.025403, 0.014889, 0.000000, 0.997629, 0.770479, 19.132679, 58.300201, 0.001253, -0.027174, -1.630168

149391604.052651, 0.005315, -0.014405, -0.023373, 0.014889, 0.000000, 0.997629, 0.770244, 19.132135, 58.275036, 0.001281, -0.027073, -1.629317

149391604.053672, 0.009090, -0.017092, -0.007632, 0.014889, 0.000000, 0.982041, 0.790593, 19.090885, 58.278229, 0.001342, -0.027006, -1.628320

149391604.054697, 0.020261, -0.019124, -0.005079, 0.014889, 0.000000, 0.982041, 0.806872, 19.057884, 58.280785, 0.001514, -0.026962, -1.627301

149391604.055734, 0.010266, -0.010649, -0.007065, 0.029778, 0.000000, 0.997629, 0.819895, 19.031485, 58.282829, 0.001590, -0.027128, -1.627209

149391604.056772, -0.001312, 0.005423, -0.008113, 0.029778, 0.000000, 0.997629, 0.850850, 19.071589, 58.214493, 0.001547, -0.027127, -1.627093

149391604.057803, -0.012946, 0.023847, -0.004653, 0.014889, -0.015483, 0.982041, 0.875613, 19.103672, 58.159821, 0.001065, -0.026656, -1.626013

149391604.058826, -0.012075, 0.026036, 0.003518, 0.014889, -0.015483, 0.982041, 0.895424, 19.129339, 58.116085, 0.000601, -0.026175, -1.624852

149391604.059848, -0.002552, 0.019807, -0.005825, 0.014889, -0.046450, 0.966453, 0.890737, 19.109056, 58.104420, -0.000402, -0.025786, -1.623813

149391604.060870, 0.005575, 0.020287, -0.016466, -0.000000, -0.046450, 0.966453, 0.886987, 19.092829, 58.095089, -0.001317, -0.025112, -1.622095

149391604.061912, 0.017418, 0.015972, -0.018811, -0.000000, -0.046450, 0.966453, 0.883987, 19.079847, 58.087624, -0.002091, -0.024489, -1.620440

149391604.062941, 0.011920, 0.020248, -0.015756, 0.059555, 0.000000, 0.982041, 0.881587, 19.069462, 58.081650, -0.001956, -0.025008, -1.622352

149391604.063961, 0.006586, 0.018925, -0.015724, 0.059555, 0.000000, 0.982041, 0.838594, 19.040747, 58.146843, -0.001878, -0.025532, -1.624277

149391604.064986, 0.007344, 0.017929, -0.013898, 0.044666, 0.000000, 0.982041, 0.804200, 19.017775, 58.198997, -0.001772, -0.025751, -1.625277

149391604.066053, 0.002406, 0.019046, -0.012110, 0.044666, 0.000000, 0.982041, 0.776685, 18.999395, 58.240723, -0.001716, -0.025947, -1.626276

149391604.067088, 0.003850, 0.017449, -0.008865, 0.029778, 0.000000, 0.982041, 0.754672, 19.005100, 58.274101, -0.001640, -0.025858, -1.626320

149391604.068117, 0.010646, 0.008710, -0.008678, 0.029778, 0.000000, 0.982041, 0.737063, 19.009665, 58.300804, -0.001498, -0.025859, -1.626380

149391604.069135, 0.017598, -0.000145, -0.003413, 0.029778, 0.000000, 0.997629, 0.722975, 19.013315, 58.322166, -0.001292, -0.025939, -1.626372

149391604.070158, 0.023805, -0.001636, -0.006032, 0.029778, 0.000000, 0.997629, 0.752777, 19.097870, 58.409229, -0.001025, -0.026034, -1.626357

149391604.071171, 0.031975, -0.001004, -0.012184, 0.029778, -0.015483, 0.982041, 0.776619, 19.165512, 58.478878, -0.000999, -0.026130, -1.626349

149391604.072203, 0.039973, -0.001581, -0.005050, 0.029778, -0.015483, 0.982041, 0.795693, 19.219627, 58.534599, -0.000889, -0.026231, -1.626251

149391604.073282, 0.043019, -0.000053, -0.002253, 0.014889, 0.000000, 0.966453, 0.810952, 19.242512, 58.509205, -0.000421, -0.026015, -1.625260

149391604.074287, 0.037329, -0.010816, -0.005495, 0.014889, 0.000000, 0.966453, 0.782086, 19.260818, 58.488888, -0.000048, -0.025909, -1.624348

149391604.075313, 0.039533, -0.009990, -0.007472, 0.029778, -0.015483, 0.966453, 0.758993, 19.275463, 58.472633, 0.000032, -0.026108, -1.624374

149391604.076353, 0.028834, 0.001583, -0.011800, 0.029778, -0.015483, 0.966453, 0.740519, 19.287180, 58.459629, 0.000008, -0.026186, -1.624461

149391604.077354, 0.010586, 0.021582, -0.016335, 0.029778, 0.000000, 0.982041, 0.705204, 19.276144, 58.402580, 0.000116, -0.026056, -1.624652

149391604.078436, 0.002290, 0.036078, -0.019878, 0.029778, 0.000000, 0.982041, 0.676952, 19.267317, 58.356941, 0.000143, -0.025757, -1.624918

149391604.079432, -0.008224, 0.026349, -0.026636, 0.044666, -0.015483, 0.982041, 0.654350, 19.260254, 58.320427, -0.000257, -0.025887, -1.626056

149391604.080478, -0.008050, 0.014731, -0.031158, 0.044666, -0.015483, 0.982041, 0.636268, 19.356646, 58.337864, -0.000649, -0.026121, -1.627240

149391604.081508, -0.000107, 0.004255, -0.037678, 0.044666, 0.000000, 0.982041, 0.621803, 19.433758, 58.351814, -0.000637, -0.026465, -1.628573

149391604.082538, 0.003184, -0.000320, -0.045257, 0.044666, 0.000000, 0.982041, 0.610231, 19.495447, 58.362976, -0.000588, -0.026848, -1.629961

149391604.083572, 0.004101, -0.003680, -0.051366, 0.044666, 0.015516, 1.028805, 0.539364, 19.422350, 58.371906, -0.000227, -0.027224, -1.631451

149391604.084591, 0.008798, 0.001182, -0.052078, 0.044666, 0.015516, 1.028805, 0.482670, 19.363873, 58.379047, 0.000173, -0.027543, -1.632978

149391604.085627, 0.015213, 0.006069, -0.054522, 0.029778, 0.000000, 0.982041, 0.437315, 19.317091, 58.384762, 0.000339, -0.027537, -1.633665

149391604.086650, 0.022367, 0.022984, -0.055766, 0.029778, 0.000000, 0.982041, 0.401032, 19.279665, 58.389332, 0.000572, -0.027361, -1.634385

149391604.087682, 0.027876, 0.020706, -0.054293, 0.044666, 0.000000, 0.982041, 0.392541, 19.229317, 58.276367, 0.000848, -0.027513, -1.635997

149391604.088710, 0.041642, 0.015785, -0.057037, 0.044666, 0.000000, 0.982041, 0.385748, 19.189037, 58.185997, 0.001257, -0.027711, -1.637611

149391604.089755, 0.035981, 0.012463, -0.059723, 0.044666, 0.000000, 0.982041, 0.380314, 19.156815, 58.113701, 0.001608, -0.027937, -1.639236

149391604.090789, 0.034925, 0.007416, -0.057868, 0.029778, 0.000000, 0.997629, 0.375967, 19.192261, 58.125835, 0.001947, -0.027898, -1.639866

149391604.091824, 0.025219, 0.003971, -0.057846, 0.029778, 0.000000, 0.997629, 0.372489, 19.220617, 58.135544, 0.002182, -0.027894, -1.640486

149391604.092856, 0.030369, 0.004486, -0.067691, 0.029778, 0.000000, 0.966453, 0.369707, 19.243303, 58.143311, 0.002464, -0.027905, -1.641251

149391604.093886, 0.030627, 0.004092, -0.076133, 0.029778, 0.000000, 0.966453, 0.429090, 19.281860, 58.149525, 0.002746, -0.027919, -1.642021

149391604.094916, 0.036261, 0.001315, -0.082005, 0.044666, 0.000000, 0.997629, 0.476597, 19.312706, 58.154495, 0.003074, -0.028238, -1.643617

149391604.095904, 0.046561, 0.002782, -0.079980, 0.044666, 0.000000, 0.997629, 0.514602, 19.337381, 58.158470, 0.003480, -0.028537, -1.645086

149391604.096965, 0.045339, -0.002410, -0.089448, 0.029778, -0.015483, 0.950865, 0.503934, 19.316305, 58.138329, 0.003583, -0.028617, -1.645819

149391604.097990, 0.043488, -0.001462, -0.095040, 0.029778, -0.015483, 0.950865, 0.495399, 19.299444, 58.122215, 0.003650, -0.028683, -1.646570

149391604.099025, 0.036592, 0.008137, -0.097823, 0.059555, 0.000000, 0.966453, 0.488571, 19.285955, 58.109325, 0.003951, -0.029251, -1.649221

149391604.100066, 0.028945, 0.008862, -0.101445, 0.059555, 0.000000, 0.966453, 0.483109, 19.275166, 58.099014, 0.004172, -0.029798, -1.651868

149391604.101096, 0.018468, 0.005088, -0.107382, 0.044666, 0.000000, 0.966453, 0.499276, 19.348166, 58.230709, 0.004302, -0.030069, -1.653585

149391604.102117, 0.006119, 0.008569, -0.107514, 0.044666, 0.000000, 0.966453, 0.512209, 19.406567, 58.336063, 0.004305, -0.030299, -1.655245

149391604.103157, 0.003897, 0.012873, -0.109735, 0.044666, 0.000000, 0.966453, 0.522555, 19.453287, 58.420345, 0.004289, -0.030480, -1.656902

149391604.104198, -0.001268, 0.007818, -0.110714, 0.044666, 0.000000, 0.966453, 0.469224, 19.511072, 58.371151, 0.004220, -0.030708, -1.658582

149391604.105182, -0.009912, 0.009747, -0.111971, 0.059555, 0.000000, 0.997629, 0.426558, 19.557299, 58.331795, 0.004055, -0.031185, -1.661001

149391604.106270, -0.021364, 0.009840, -0.108418, 0.059555, 0.000000, 0.997629, 0.392426, 19.594280, 58.300312, 0.003764, -0.031642, -1.663475

149391604.107243, -0.016783, 0.008313, -0.107502, 0.029778, 0.031033, 0.950865, 0.282974, 19.542233, 58.205154, 0.004213, -0.031550, -1.664407

149391604.108283, -0.006862, 0.008437, -0.108229, 0.029778, 0.031033, 0.950865, 0.195413, 19.500595, 58.129028, 0.004746, -0.031454, -1.665500

149391604.109348, 0.006140, 0.005270, -0.111332, 0.059555, 0.015516, 0.966453, 0.125365, 19.467285, 58.068127, 0.005046, -0.032004, -1.668461

149391604.110335, 0.009001, 0.001272, -0.110483, 0.059555, 0.015516, 0.966453, 0.069325, 19.440638, 58.019405, 0.005362, -0.032586, -1.671329

149391604.111408, 0.003429, -0.002044, -0.106064, 0.044666, 0.000000, 0.950865, 0.024494, 19.480543, 58.027077, 0.005322, -0.032887, -1.673187

149391604.112416, 0.001862, -0.006486, -0.105625, 0.044666, 0.000000, 0.950865, -0.011371, 19.512468, 58.033215, 0.005263, -0.033224, -1.674969

149391604.113442, 0.007205, -0.006948, -0.104299, 0.044666, 0.000000, 0.982041, -0.040063, 19.538008, 58.038124, 0.005262, -0.033531, -1.676659

149391604.114756, 0.021704, 0.000375, -0.102402, 0.044666, 0.000000, 0.982041, -0.124625, 19.599257, 58.065376, 0.005476, -0.033756, -1.678662

149391604.115546, 0.013772, 0.010234, -0.111907, 0.029778, 0.000000, 0.997629, -0.192276, 19.648254, 58.087177, 0.005502, -0.033594, -1.679325

149391604.116517, -0.000571, 0.014802, -0.114036, 0.029778, 0.000000, 0.997629, -0.246396, 19.687454, 58.104618, 0.005423, -0.033373, -1.680244

149391604.117572, -0.005343, 0.010006, -0.116719, 0.029778, 0.000000, 0.997629, -0.269155, 19.698404, 58.095245, 0.005299, -0.033193, -1.681287

149391604.118606, -0.001044, 0.016672, -0.113962, 0.029778, 0.000000, 0.997629, -0.287363, 19.707165, 58.087749, 0.005221, -0.032951, -1.682275

149391604.119636, -0.005208, 0.022002, -0.113955, 0.029778, 0.000000, 0.997629, -0.301929, 19.714174, 58.081753, 0.005101, -0.032661, -1.683253

149391604.120658, -0.005819, 0.033914, -0.117010, 0.029778, -0.015483, 0.950865, -0.313582, 19.658556, 58.100277, 0.004653, -0.032291, -1.684227

149391604.121708, -0.005996, 0.038582, -0.122619, 0.029778, -0.015483, 0.950865, -0.322905, 19.614061, 58.115097, 0.004214, -0.031871, -1.685284

149391604.122712, -0.006606, 0.035528, -0.125063, 0.029778, 0.000000, 0.982041, -0.330363, 19.578466, 58.126953, 0.004103, -0.031485, -1.686354

149391604.123743, -0.016035, 0.031491, -0.111965, 0.029778, 0.000000, 0.982041, -0.336329, 19.549990, 58.136436, 0.003895, -0.031139, -1.687311

149391604.124810, -0.015399, 0.025147, -0.108412, 0.029778, 0.000000, 0.982041, -0.341102, 19.608841, 58.120701, 0.003691, -0.030856, -1.688251

149391604.125838, 0.001071, 0.008172, -0.105830, 0.029778, 0.000000, 0.982041, -0.344920, 19.655922, 58.108112, 0.003660, -0.030759, -1.689102

149391604.126859, 0.006132, -0.012033, -0.103901, 0.029778, 0.000000, 0.997629, -0.347975, 19.693588, 58.098042, 0.003681, -0.030858, -1.689883

149391604.127906, 0.008096, -0.022843, -0.098425, 0.029778, 0.000000, 0.997629, -0.370955, 19.682903, 58.113308, 0.003721, -0.031069, -1.690644

149391604.128898, 0.010915, -0.025053, -0.097549, 0.029778, -0.015483, 0.982041, -0.389339, 19.674356, 58.125523, 0.003467, -0.031297, -1.691269

149391604.129960, 0.018460, -0.038578, -0.093701, 0.029778, -0.015483, 0.982041, -0.404047, 19.667519, 58.135292, 0.003305, -0.031678, -1.691923

149391604.130960, 0.017174, -0.038962, -0.095615, 0.029778, 0.000000, 0.966453, -0.559567, 19.641640, 58.166435, 0.003438, -0.032040, -1.692822

149391604.131988, 0.020401, -0.038142, -0.090313, 0.029778, 0.000000, 0.966453, -0.683983, 19.620937, 58.191349, 0.003604, -0.032396, -1.693803

149391604.133033, 0.025593, -0.036309, -0.095506, 0.029778, 0.000000, 0.982041, -0.783516, 19.604376, 58.211281, 0.003826, -0.032722, -1.694907

149391604.134047, 0.025652, -0.032854, -0.089907, 0.029778, 0.000000, 0.982041, -0.719388, 19.570717, 58.320522, 0.004034, -0.032997, -1.695848

149391604.135105, 0.018322, -0.027051, -0.088380, 0.044666, 0.000000, 0.935277, -0.668086, 19.543791, 58.407913, 0.004166, -0.033566, -1.697764

149391604.136113, 0.010461, -0.017810, -0.085024, 0.044666, 0.000000, 0.935277, -0.627044, 19.522249, 58.477825, 0.004209, -0.034019, -1.699531

149391604.137146, 0.005756, -0.008166, -0.080244, 0.014889, 0.000000, 0.966453, -0.594210, 19.505016, 58.533756, 0.004201, -0.033729, -1.699298

149391604.138175, -0.003336, -0.005004, -0.077658, 0.014889, 0.000000, 0.966453, -0.650089, 19.613680, 58.438557, 0.004100, -0.033411, -1.699088

149391604.139222, -0.005956, -0.003105, -0.074827, 0.014889, 0.015516, 0.982041, -0.694792, 19.700609, 58.362396, 0.004291, -0.033070, -1.698976

149391604.140258, -0.007625, 0.001147, -0.073850, 0.014889, 0.015516, 0.982041, -0.730554, 19.770153, 58.301468, 0.004461, -0.032692, -1.698878

149391604.141281, -0.001783, -0.006353, -0.072594, 0.014889, 0.000000, 0.966453, -0.800236, 19.784973, 58.252728, 0.004370, -0.032409, -1.698756

149391604.142321, 0.008420, -0.014292, -0.068973, 0.014889, 0.000000, 0.966453, -0.855982, 19.796829, 58.213734, 0.004385, -0.032213, -1.698665

149391604.143341, 0.012728, -0.017579, -0.062737, 0.014889, 0.000000, 1.013217, -0.900579, 19.806313, 58.182541, 0.004438, -0.032037, -1.698503

149391604.144371, 0.012161, -0.016910, -0.063210, 0.014889, 0.000000, 1.013217, -0.956793, 19.854715, 58.204231, 0.004486, -0.031860, -1.698407

149391604.145409, 0.014596, -0.018647, -0.059487, 0.014889, 0.000000, 1.013217, -1.001764, 19.893438, 58.221584, 0.004558, -0.031705, -1.698322

149391604.146439, 0.027119, -0.028115, -0.059487, -0.000000, 0.000000, 0.950865, -1.037741, 19.924417, 58.235466, 0.004736, -0.031356, -1.697412

149391604.147484, 0.044787, -0.037391, -0.057338, -0.000000, 0.000000, 0.950865, -1.066522, 19.949200, 58.246574, 0.005095, -0.031113, -1.696535

149391604.148500, 0.058226, -0.050219, -0.059170, -0.015630, -0.015483, 0.966453, -1.089547, 19.969027, 58.255459, 0.005216, -0.030691, -1.694747

149391604.149497, 0.050721, -0.055142, -0.054935, -0.015630, -0.015483, 0.966453, -1.107967, 19.984888, 58.262566, 0.005250, -0.030315, -1.692960

149391604.150535, 0.036671, -0.048728, -0.055240, 0.014889, 0.031033, 0.997629, -1.122704, 19.997576, 58.268253, 0.006155, -0.030497, -1.693278

149391604.151574, 0.034404, -0.041423, -0.055871, 0.014889, 0.031033, 0.997629, -1.175565, 19.946503, 58.272804, 0.007020, -0.030601, -1.693660

149391604.152588, 0.025906, -0.036664, -0.056489, 0.029778, 0.000000, 0.966453, -1.217855, 19.905643, 58.276443, 0.007154, -0.030963, -1.694771

149391604.153649, 0.016988, -0.031108, -0.058888, 0.029778, 0.000000, 0.966453, -1.251686, 19.872957, 58.279354, 0.007207, -0.031277, -1.695948

149391604.154673, 0.007063, -0.016998, -0.064525, 0.029778, 0.000000, 0.966453, -1.237679, 19.908031, 58.235035, 0.007155, -0.031431, -1.697115

149391604.155710, 0.011997, -0.013351, -0.071838, 0.029778, 0.000000, 0.966453, -1.226472, 19.936090, 58.199581, 0.007157, -0.031548, -1.698325

149391604.156734, 0.012302, -0.009991, -0.075503, 0.029778, 0.000000, 0.966453, -1.217507, 19.958538, 58.171219, 0.007161, -0.031626, -1.699525

149391604.157760, 0.015968, -0.006631, -0.084360, 0.029778, 0.000000, 0.966453, -1.271945, 19.935680, 58.195175, 0.007206, -0.031668, -1.700849

149391604.158798, 0.026352, 0.000394, -0.089247, 0.044666, 0.000000, 0.997629, -1.315494, 19.917395, 58.214340, 0.007350, -0.031914, -1.703041

149391604.159838, 0.033683, 0.004059, -0.093829, 0.044666, 0.000000, 0.997629, -1.350334, 19.902765, 58.229671, 0.007569, -0.032117, -1.705275

149391604.160873, 0.035821, 0.008029, -0.098716, 0.029778, 0.015516, 0.982041, -1.378206, 19.891062, 58.241936, 0.008130, -0.031994, -1.706880

149391604.161890, 0.036126, 0.013222, -0.104213, 0.029778, 0.015516, 0.982041, -1.379967, 19.840883, 58.181778, 0.008677, -0.031822, -1.708499

149391604.162901, 0.031545, 0.023607, -0.106351, 0.029778, 0.000000, 0.966453, -1.381376, 19.800739, 58.133652, 0.008849, -0.031557, -1.709972

149391604.163937, 0.028796, 0.028188, -0.110322, 0.029778, 0.000000, 0.966453, -1.382503, 19.768625, 58.095150, 0.009000, -0.031244, -1.711487

149391604.165016, 0.024520, 0.024828, -0.115514, 0.029778, 0.015516, 0.935277, -1.445014, 19.844975, 58.087673, 0.009449, -0.030984, -1.713358

149391604.166013, 0.015357, 0.019941, -0.121318, 0.029778, 0.015516, 0.935277, -1.495023, 19.906054, 58.081692, 0.009778, -0.030797, -1.715194

149391604.167026, 0.011386, 0.017192, -0.127732, 0.044666, 0.015516, 0.982041, -1.535030, 19.954918, 58.076904, 0.010039, -0.030910, -1.717901

149391604.168086, 0.014440, 0.012000, -0.132619, 0.044666, 0.015516, 0.982041, -1.546499, 20.034824, 58.143047, 0.010337, -0.031066, -1.720661

149391604.169126, 0.000696, 0.015054, -0.135062, 0.059555, 0.000000, 0.950865, -1.555674, 20.098749, 58.195961, 0.010149, -0.031517, -1.724095

149391604.170182, 0.002223, 0.009251, -0.135062, 0.059555, 0.000000, 0.950865, -1.563014, 20.149889, 58.238293, 0.009983, -0.032018, -1.727482

149391604.171151, -0.006634, 0.011389, -0.139033, 0.059555, 0.015516, 0.982041, -1.609959, 20.129578, 58.225510, 0.010050, -0.032473, -1.730903

149391604.172174, -0.008162, 0.017498, -0.135978, 0.059555, 0.015516, 0.982041, -1.647515, 20.113329, 58.215282, 0.010098, -0.032851, -1.734339

149391604.173241, -0.009383, 0.020858, -0.138727, 0.059555, 0.015516, 0.982041, -1.677560, 20.100328, 58.207100, 0.010134, -0.033177, -1.737827

149391604.174233, 0.004972, 0.009251, -0.143309, -0.000000, 0.000000, 0.982041, -1.701596, 20.089930, 58.200554, 0.009998, -0.032419, -1.737565

149391604.175266, 0.009859, 0.006197, -0.146669, -0.000000, 0.000000, 0.982041, -1.823506, 20.102018, 58.195320, 0.009922, -0.031701, -1.737520

149391604.176300, 0.017495, 0.002837, -0.149723, 0.044666, 0.000000, 0.950865, -1.921035, 20.111689, 58.191132, 0.009940, -0.031955, -1.740248

149391604.177325, 0.011692, -0.002661, -0.155832, 0.044666, 0.000000, 0.950865, -1.999057, 20.119425, 58.187782, 0.009900, -0.032260, -1.743042

149391604.178362, 0.002834, -0.008769, -0.158886, 0.044666, 0.031033, 0.982041, -2.020403, 20.186838, 58.208427, 0.010405, -0.032613, -1.746217

149391604.179387, -0.003580, -0.013045, -0.159497, 0.044666, 0.031033, 0.982041, -2.037479, 20.240768, 58.224941, 0.010835, -0.032998, -1.749321

149391604.180459, 0.000391, -0.011213, -0.161940, 0.044666, 0.000000, 0.966453, -2.051140, 20.283913, 58.238152, 0.010673, -0.033356, -1.752043

149391604.181463, 0.008637, -0.010296, -0.161024, 0.044666, 0.000000, 0.966453, -2.144214, 20.216389, 58.225395, 0.010591, -0.033691, -1.754696

149391604.182486, 0.012913, -0.013045, -0.162246, 0.029778, 0.015516, 0.966453, -2.218674, 20.162369, 58.215191, 0.010885, -0.033748, -1.756770

149391604.183554, 0.017495, -0.007853, -0.165300, 0.029778, 0.015516, 0.966453, -2.278241, 20.119152, 58.207027, 0.011231, -0.033753, -1.758973

149391604.184538, 0.025741, -0.002966, -0.164689, 0.044666, 0.015516, 0.982041, -2.325895, 20.084579, 58.200497, 0.011617, -0.034000, -1.761885

149391604.185605, 0.035821, 0.000699, -0.165300, 0.044666, 0.015516, 0.982041, -2.364018, 20.077330, 58.125301, 0.012126, -0.034204, -1.764914

149391604.186605, 0.049260, -0.007242, -0.162857, 0.044666, 0.015516, 0.966453, -2.394517, 20.071529, 58.065144, 0.012735, -0.034496, -1.767825

149391604.187640, 0.054147, -0.020376, -0.164078, 0.044666, 0.015516, 0.966453, -2.418916, 20.066889, 58.017017, 0.013401, -0.034916, -1.770770

149391604.188675, 0.059950, -0.028012, -0.166522, 0.044666, 0.015516, 0.982041, -2.458971, 20.083586, 58.048489, 0.014111, -0.035389, -1.773674

149391604.189702, 0.060866, -0.031066, -0.168660, 0.044666, 0.015516, 0.982041, -2.491016, 20.096943, 58.073666, 0.014812, -0.035878, -1.776557

149391604.190728, 0.057201, -0.031371, -0.171714, 0.044666, 0.031033, 0.982041, -2.516651, 20.107630, 58.093807, 0.015779, -0.036370, -1.779699

149391604.191753, 0.050482, -0.030455, -0.172019, 0.044666, 0.031033, 0.982041, -2.578232, 20.136587, 58.063274, 0.016659, -0.036839, -1.782833

149391604.192789, 0.041624, -0.020681, -0.177517, 0.059555, 0.031033, 0.966453, -2.627497, 20.159752, 58.038849, 0.017429, -0.037528, -1.786961

149391604.193817, 0.026352, -0.010602, -0.175685, 0.059555, 0.031033, 0.966453, -2.666909, 20.178284, 58.019306, 0.018028, -0.038099, -1.791003

149391604.194890, 0.016884, -0.009991, -0.169881, 0.029778, 0.031033, 0.997629, -2.739511, 20.172701, 58.026997, 0.018537, -0.038008, -1.793182

149391604.195877, 0.029407, -0.013045, -0.168965, 0.029778, 0.031033, 0.997629, -2.797593, 20.168236, 58.033150, 0.019136, -0.037942, -1.795228

149391604.196967, 0.035515, -0.013962, -0.169576, 0.029778, 0.015516, 0.997629, -2.844058, 20.164663, 58.038071, 0.019513, -0.037894, -1.797225

149391604.197955, 0.031239, -0.019459, -0.166827, 0.029778, 0.015516, 0.997629, -2.881231, 20.161806, 58.042007, 0.019799, -0.037890, -1.799027

149391604.198969, 0.038264, -0.018543, -0.168660, 0.029778, 0.015516, 0.966453, -2.910969, 20.200335, 58.068481, 0.020169, -0.037898, -1.800936

149391604.200019, 0.040097, -0.013656, -0.174463, 0.059555, 0.015516, 0.966453, -2.934759, 20.231157, 58.089661, 0.020546, -0.038470, -1.804650

149391604.201047, 0.036432, -0.012129, -0.175379, 0.059555, 0.015516, 0.966453, -2.953791, 20.255816, 58.106606, 0.020871, -0.039012, -1.808272

149391604.202098, 0.031239, -0.003272, -0.179961, 0.014889, 0.031033, 1.013217, -3.030626, 20.295952, 58.050186, 0.021452, -0.038518, -1.809524

149391604.203116, 0.033072, -0.005410, -0.188818, 0.014889, 0.031033, 1.013217, -3.092094, 20.328060, 58.005051, 0.022031, -0.038052, -1.810838

149391604.204130, 0.044067, -0.004493, -0.197981, 0.044666, 0.015516, 0.982041, -3.141268, 20.353746, 57.968945, 0.022416, -0.038197, -1.813793

149391604.205191, 0.050787, -0.007242, -0.207450, 0.044666, 0.015516, 0.982041, -3.180607, 20.333479, 57.963383, 0.022891, -0.038365, -1.816923

149391604.206178, 0.055063, -0.006937, -0.218140, 0.044666, 0.015516, 0.966453, -3.212079, 20.317266, 57.958935, 0.023364, -0.038536, -1.820022

149391604.207220, 0.054758, -0.003577, -0.223027, 0.044666, 0.015516, 0.966453, -3.237256, 20.304296, 57.955376, 0.023861, -0.038668, -1.823251

149391604.208252, 0.045289, 0.003753, -0.229746, 0.044666, 0.046549, 0.966453, -3.175253, 20.416368, 58.069149, 0.024889, -0.038739, -1.826985

149391604.209279, 0.028185, 0.015665, -0.232190, 0.044666, 0.046549, 0.966453, -3.125650, 20.506025, 58.160168, 0.025723, -0.038684, -1.830580

149391604.210303, 0.024825, 0.016887, -0.231579, 0.029778, 0.031033, 0.966453, -3.085968, 20.577751, 58.232983, 0.026189, -0.038296, -1.832826

149391604.211343, 0.028796, 0.006197, -0.235855, 0.029778, 0.031033, 0.966453, -3.054222, 20.635132, 58.291233, 0.026691, -0.038019, -1.835068

149391604.212365, 0.024825, -0.002355, -0.235549, 0.074444, 0.015516, 0.966453, -3.131507, 20.578997, 58.244537, 0.026778, -0.038744, -1.839547

149391604.213431, 0.018106, -0.012740, -0.247461, 0.074444, 0.015516, 0.966453, -3.193335, 20.534088, 58.207184, 0.026815, -0.039558, -1.844233

149391604.214467, 0.016884, -0.021903, -0.252654, 0.059555, 0.015516, 0.982041, -3.242797, 20.498161, 58.177299, 0.026857, -0.040125, -1.848004

149391604.215484, 0.016884, -0.031066, -0.258152, 0.059555, 0.015516, 0.982041, -3.405585, 20.469419, 58.200039, 0.026896, -0.040767, -1.851869

149391604.216528, 0.027880, -0.041145, -0.268536, 0.059555, 0.015516, 0.982041, -3.535816, 20.446426, 58.218231, 0.027060, -0.041502, -1.855959

149391604.217547, 0.037042, -0.046948, -0.279226, 0.059555, 0.015516, 0.982041, -3.640000, 20.428032, 58.232784, 0.027310, -0.042268, -1.860110

149391604.218556, 0.040708, -0.041451, -0.289611, 0.059555, 0.015516, 0.966453, -3.682275, 20.433723, 58.197781, 0.027598, -0.042977, -1.864345

149391604.219593, 0.023603, -0.027095, -0.295109, 0.059555, 0.015516, 0.966453, -3.716095, 20.438278, 58.169777, 0.027725, -0.043532, -1.868652

149391604.220640, 0.017189, -0.017932, -0.298469, 0.059555, 0.015516, 0.982041, -3.743151, 20.441921, 58.147373, 0.027788, -0.043965, -1.872900

149391604.221643, 0.020549, -0.010907, -0.305799, 0.059555, 0.015516, 0.982041, -3.764795, 20.444836, 58.129452, 0.027874, -0.044314, -1.877022

149391604.222692, 0.008943, -0.004799, -0.314351, 0.059555, 0.031033, 1.013217, -3.823184, 20.508392, 58.161762, 0.028155, -0.044561, -1.881536

149391604.223702, 0.017495, -0.005410, -0.325347, 0.059555, 0.031033, 1.013217, -3.869895, 20.559237, 58.187611, 0.028513, -0.044807, -1.885972

149391604.224731, 0.025741, -0.008464, -0.336648, 0.059555, 0.031033, 1.013217, -3.907263, 20.599913, 58.208290, 0.028960, -0.045073, -1.890519

149391604.225799, 0.031545, -0.025874, -0.345505, 0.059555, 0.031033, 1.013217, -3.957694, 20.510004, 58.178185, 0.029480, -0.045511, -1.895277

149391604.226807, 0.031850, -0.054584, -0.351919, 0.029778, 0.062065, 0.966453, -3.998039, 20.438078, 58.154099, 0.030648, -0.045654, -1.899004

149391604.227831, 0.050787, -0.066191, -0.367496, 0.029778, 0.062065, 0.966453, -4.030315, 20.380537, 58.134830, 0.032000, -0.045908, -1.902931

149391604.228886, 0.072473, -0.074743, -0.370856, 0.029778, 0.062065, 0.966453, -4.158818, 20.395729, 58.119415, 0.033572, -0.046255, -1.907058

149391604.229883, 0.067280, -0.066801, -0.379103, 0.044666, 0.046549, 0.950865, -4.261620, 20.407883, 58.107086, 0.034709, -0.046800, -1.911677

149391604.230947, 0.068502, -0.054279, -0.391015, 0.044666, 0.046549, 0.950865, -4.343862, 20.417604, 58.097221, 0.035900, -0.047229, -1.916651

149391604.231982, 0.070029, -0.050003, -0.395902, 0.059555, 0.031033, 0.966453, -4.368582, 20.425383, 58.042679, 0.036718, -0.047873, -1.921883

149391604.233006, 0.066669, -0.046948, -0.399872, 0.059555, 0.031033, 0.966453, -4.388359, 20.431604, 57.999046, 0.037482, -0.048464, -1.927019

149391604.234040, 0.061172, -0.043894, -0.406286, 0.044666, 0.015516, 0.966453, -4.404180, 20.436583, 57.964142, 0.037874, -0.048710, -1.931003

149391604.235082, 0.069113, -0.037175, -0.414838, 0.044666, 0.015516, 0.966453, -4.416837, 20.440565, 57.936218, 0.038350, -0.048879, -1.935033

149391604.236098, 0.077360, -0.030150, -0.431943, 0.059555, 0.062065, 1.013217, -4.488572, 20.423342, 57.937202, 0.039781, -0.049222, -1.940870

149391604.237145, 0.088966, -0.030150, -0.449658, 0.059555, 0.062065, 1.013217, -4.545959, 20.409563, 57.937988, 0.041344, -0.049546, -1.946971

149391604.238135, 0.104543, -0.034426, -0.465235, 0.059555, 0.031033, 0.982041, -4.591869, 20.398540, 57.938618, 0.042384, -0.049907, -1.952230

149391604.239190, 0.111263, -0.048781, -0.476536, 0.059555, 0.031033, 0.982041, -4.628597, 20.410131, 57.915798, 0.043563, -0.050408, -1.957832

149391604.240200, 0.101183, -0.067718, -0.481728, 0.059555, 0.031033, 0.950865, -4.657980, 20.419403, 57.897541, 0.044586, -0.051105, -1.963326

149391604.241219, 0.095075, -0.075048, -0.482644, 0.059555, 0.031033, 0.950865, -4.681486, 20.426821, 57.882935, 0.045543, -0.051861, -1.968780

149391604.242273, 0.093548, -0.074743, -0.479285, 0.089333, 0.046549, 0.950865, -4.720827, 20.473572, 57.871250, 0.046788, -0.053240, -1.976297

149391604.243302, 0.076749, -0.066191, -0.474703, 0.089333, 0.046549, 0.950865, -4.752300, 20.510973, 57.861904, 0.047816, -0.054486, -1.983497

149391604.244324, 0.055368, -0.052752, -0.468289, 0.074444, 0.046549, 0.997629, -4.777478, 20.540894, 57.854427, 0.048594, -0.055185, -1.989432

149391604.245371, 0.038264, -0.032898, -0.464624, 0.074444, 0.046549, 0.997629, -4.879766, 20.605646, 57.801800, 0.049202, -0.055672, -1.995371

149391604.246390, 0.020855, -0.017627, -0.462486, 0.074444, 0.031033, 0.982041, -4.961596, 20.657448, 57.759697, 0.049309, -0.056013, -2.000739

149391604.247409, 0.008026, -0.000828, -0.467373, 0.074444, 0.031033, 0.982041, -5.027061, 20.698889, 57.726013, 0.049291, -0.056177, -2.006078

149391604.248447, -0.014576, 0.001310, -0.470427, 0.044666, 0.015516, 0.982041, -5.079432, 20.732042, 57.699066, 0.048734, -0.055736, -2.009575

149391604.249475, 0.023909, -0.020070, -0.475009, 0.044666, 0.015516, 0.982041, -5.244548, 20.738157, 57.724155, 0.048576, -0.055520, -2.013156

149391604.250505, 0.059034, -0.051835, -0.477147, 0.044666, 0.000000, 0.997629, -5.376640, 20.743050, 57.744228, 0.048462, -0.055630, -2.016471

149391604.251536, 0.088355, -0.079630, -0.480201, 0.044666, 0.000000, 0.997629, -5.482314, 20.746964, 57.760284, 0.048649, -0.056017, -2.019854

149391604.252613, 0.096602, -0.100094, -0.477147, 0.029778, 0.046549, 0.950865, -5.525781, 20.709278, 57.843102, 0.049946, -0.056330, -2.023783

149391604.253610, 0.079192, -0.098566, -0.477147, 0.029778, 0.046549, 0.950865, -5.560554, 20.679131, 57.909355, 0.050949, -0.056557, -2.027301

149391604.254626, 0.067891, -0.087265, -0.480201, 0.074444, 0.062065, 0.966453, -5.588372, 20.655012, 57.962360, 0.052149, -0.057591, -2.033777

149391604.255674, 0.039486, -0.059471, -0.479896, 0.074444, 0.062065, 0.966453, -5.610627, 20.615309, 57.934792, 0.053066, -0.058333, -2.040293

149391604.256710, 0.011997, -0.038702, -0.478674, 0.074444, 0.062065, 0.966453, -5.628431, 20.583546, 57.912735, 0.053682, -0.058841, -2.046632

149391604.257757, -0.004496, -0.033815, -0.486615, 0.059555, 0.031033, 0.935277, -5.642674, 20.558136, 57.895092, 0.053522, -0.059016, -2.051433

149391604.258785, -0.000220, -0.036869, -0.501887, 0.059555, 0.031033, 0.935277, -5.654068, 20.537807, 57.880978, 0.053413, -0.059211, -2.056222

149391604.259798, 0.018106, -0.053668, -0.515631, 0.044666, 0.015516, 0.950865, -5.683721, 20.378687, 57.846363, 0.053146, -0.059253, -2.059820

149391604.260823, 0.036737, -0.071383, -0.522656, 0.044666, 0.015516, 0.950865, -5.707442, 20.251390, 57.818668, 0.053083, -0.059473, -2.063561

149391604.261856, 0.050482, -0.083295, -0.528154, 0.059555, 0.031033, 0.982041, -5.726419, 20.149553, 57.796513, 0.053487, -0.060057, -2.068453

149391604.262877, 0.055368, -0.075354, -0.530597, 0.059555, 0.031033, 0.982041, -5.803210, 20.231350, 57.825439, 0.053925, -0.060540, -2.073235

149391604.263911, 0.053230, -0.064969, -0.533041, 0.059555, 0.031033, 0.966453, -5.864643, 20.296787, 57.848579, 0.054358, -0.060931, -2.078101

149391604.264939, 0.040708, -0.055806, -0.531819, 0.059555, 0.031033, 0.966453, -5.913789, 20.349136, 57.867092, 0.054652, -0.061220, -2.082840

149391604.265974, 0.030323, -0.050614, -0.528765, 0.059555, 0.031033, 0.982041, -5.994178, 20.350199, 57.835255, 0.054829, -0.061434, -2.087493

149391604.267021, 0.029712, -0.046948, -0.523572, 0.059555, 0.031033, 0.982041, -6.058490, 20.351049, 57.809784, 0.055000, -0.061611, -2.092108

149391604.268042, 0.034599, -0.050614, -0.522351, 0.044666, 0.046549, 0.950865, -6.109939, 20.351730, 57.789406, 0.055541, -0.061537, -2.096305

149391604.269062, 0.045289, -0.045727, -0.516853, 0.044666, 0.046549, 0.950865, -6.212708, 20.352274, 57.749783, 0.056173, -0.061416, -2.100450

149391604.270088, 0.034294, -0.034426, -0.513493, 0.059555, 0.046549, 0.950865, -6.294922, 20.352709, 57.718082, 0.056691, -0.061493, -2.105370

149391604.271156, 0.016578, -0.013656, -0.505552, 0.059555, 0.046549, 0.950865, -6.360694, 20.353058, 57.692722, 0.057034, -0.061356, -2.110367

149391604.272139, 0.010470, 0.001310, -0.499138, 0.044666, 0.015516, 0.982041, -6.413312, 20.353336, 57.672436, 0.056588, -0.060795, -2.113081

149391604.273211, 0.028796, -0.002355, -0.506774, 0.044666, 0.015516, 0.982041, -6.475942, 20.394377, 57.679527, 0.056382, -0.060255, -2.116301

149391604.274225, 0.069113, -0.022819, -0.521434, 0.029778, 0.062065, 0.966453, -6.526046, 20.427208, 57.685200, 0.057512, -0.059591, -2.119849

149391604.275247, 0.111568, -0.051835, -0.530597, 0.029778, 0.062065, 0.966453, -6.566130, 20.453474, 57.689739, 0.059055, -0.059218, -2.123502

149391604.276275, 0.094158, -0.075048, -0.526932, 0.074444, 0.015516, 0.950865, -6.639269, 20.433670, 57.763344, 0.059474, -0.060051, -2.128205

149391604.277313, 0.099045, -0.076575, -0.548007, 0.074444, 0.015516, 0.950865, -6.697781, 20.417826, 57.822227, 0.059964, -0.060872, -2.133134

149391604.278328, 0.067280, -0.058860, -0.550756, 0.044666, 0.062065, 0.982041, -6.744590, 20.405151, 57.869335, 0.061025, -0.060814, -2.137665

149391604.279376, -0.024044, -0.054890, -0.550756, 0.044666, 0.062065, 0.982041, -6.802574, 20.395012, 57.837048, 0.061157, -0.060721, -2.142330

149391604.280413, -0.017325, -0.056417, -0.561446, 0.059555, 0.077582, 0.950865, -6.848961, 20.386900, 57.811218, 0.061735, -0.060980, -2.148505

149391604.281474, -0.011521, -0.067412, -0.552894, 0.059555, 0.077582, 0.950865, -6.886070, 20.380411, 57.790554, 0.062363, -0.061354, -2.154642

149391604.282461, -0.011216, -0.090625, -0.550451, 0.044666, 0.062065, 0.982041, -6.915758, 20.375219, 57.797348, 0.062589, -0.061576, -2.158764

149391604.283479, 0.004056, -0.105897, -0.538844, 0.044666, 0.062065, 0.982041, -6.960045, 20.371065, 57.802780, 0.062965, -0.061969, -2.162912

149391604.284527, -0.003275, -0.110478, -0.515326, 0.044666, 0.062065, 0.982041, -6.995474, 20.367743, 57.807129, 0.063257, -0.062435, -2.166934

149391604.285564, -0.024349, -0.091847, -0.495778, 0.074444, 0.077582, 0.982041, -7.023817, 20.365084, 57.810608, 0.063637, -0.063313, -2.172697

149391604.286619, -0.035040, -0.059471, -0.488753, 0.074444, 0.077582, 0.982041, -7.025955, 20.444590, 57.813389, 0.063899, -0.063850, -2.178288

149391604.287614, -0.032902, -0.025263, -0.479285, 0.029778, 0.077582, 1.013217, -7.027666, 20.508196, 57.815613, 0.064090, -0.063093, -2.180830

149391604.288680, -0.030458, -0.007853, -0.473481, 0.029778, 0.077582, 1.013217, -7.029035, 20.559080, 57.817394, 0.064292, -0.062169, -2.183557

149391604.289677, -0.022517, 0.000699, -0.476536, 0.059555, 0.077582, 0.982041, -7.009593, 20.497747, 57.772171, 0.064650, -0.061823, -2.187702

149391604.290714, -0.001137, -0.015183, -0.480812, 0.059555, 0.077582, 0.982041, -6.994040, 20.448681, 57.735992, 0.065224, -0.061627, -2.192014

149391604.291765, 0.041013, -0.046032, -0.489364, 0.059555, 0.077582, 0.997629, -6.981597, 20.409428, 57.707050, 0.066206, -0.061721, -2.196329

149391604.292753, 0.055674, -0.075048, -0.496389, 0.059555, 0.077582, 0.997629, -7.074325, 20.398432, 57.800514, 0.067272, -0.062076, -2.200440

149391604.293817, 0.049260, -0.096123, -0.501581, 0.059555, 0.077582, 0.982041, -7.148507, 20.389635, 57.875286, 0.068347, -0.062685, -2.205081

149391604.294815, 0.038264, -0.102537, -0.507079, 0.059555, 0.077582, 0.982041, -7.207852, 20.382599, 57.935104, 0.069246, -0.063295, -2.209419

149391604.295853, 0.016578, -0.084822, -0.513493, 0.059555, 0.062065, 0.966453, -7.255329, 20.376970, 57.982960, 0.069646, -0.063759, -2.213517

149391604.296896, -0.016714, -0.041145, -0.520213, 0.059555, 0.062065, 0.966453, -7.334383, 20.413284, 57.951271, 0.069704, -0.063765, -2.217638

149391604.297942, -0.036261, 0.010473, -0.518991, 0.059555, 0.108614, 0.950865, -7.397626, 20.442335, 57.925919, 0.070551, -0.063267, -2.223605

149391604.298954, -0.065888, 0.069421, -0.503414, 0.059555, 0.108614, 0.950865, -7.448221, 20.465576, 57.905640, 0.071071, -0.062217, -2.229109

149391604.300004, -0.076273, 0.113098, -0.488448, 0.089333, 0.124131, 0.919689, -7.550306, 20.422943, 57.842770, 0.071795, -0.061469, -2.237159

149391604.301025, -0.083603, 0.153415, -0.480201, 0.089333, 0.124131, 0.919689, -7.631974, 20.388838, 57.792473, 0.072433, -0.060373, -2.244878

149391604.302073, -0.087574, 0.167465, -0.469816, 0.059555, 0.139647, 0.966453, -7.697308, 20.361553, 57.752235, 0.073230, -0.058379, -2.251323

149391604.303082, -0.103151, 0.147612, -0.473787, 0.059555, 0.139647, 0.966453, -7.872793, 20.278500, 57.696720, 0.073873, -0.056693, -2.257726

149391604.304095, -0.073524, 0.109128, -0.486921, 0.059555, 0.077582, 0.982041, -8.013182, 20.212057, 57.652309, 0.073511, -0.055328, -2.261487

149391604.305144, -0.023739, 0.060258, -0.508301, 0.059555, 0.077582, 0.982041, -8.125492, 20.158903, 57.616779, 0.073660, -0.054425, -2.265720

149391604.306179, 0.022076, 0.007419, -0.524183, 0.029778, 0.077582, 1.013217, -8.235877, 20.177605, 57.658325, 0.074194, -0.053452, -2.268424

149391604.307239, 0.042540, -0.032288, -0.541593, 0.029778, 0.077582, 1.013217, -8.324185, 20.192566, 57.691563, 0.074949, -0.052883, -2.271484

149391604.308233, 0.054147, -0.064969, -0.558392, 0.119110, 0.046549, 1.013217, -8.394832, 20.204535, 57.718155, 0.075183, -0.054383, -2.277233

149391604.309242, 0.024825, -0.080851, -0.580994, 0.119110, 0.046549, 1.013217, -8.451348, 20.214109, 57.739426, 0.075159, -0.055996, -2.283219

149391604.310280, -0.001442, -0.095818, -0.596571, 0.089333, 0.046549, 1.059981, -8.496562, 20.242178, 57.686474, 0.074884, -0.057093, -2.288065

149391604.311317, 0.009554, -0.118420, -0.623143, 0.089333, 0.046549, 1.059981, -8.532733, 20.264633, 57.644112, 0.074750, -0.058379, -2.293101

149391604.312357, 0.024214, -0.141632, -0.649105, 0.089333, 0.046549, 1.059981, -8.561669, 20.282597, 57.610222, 0.074795, -0.059860, -2.298349

149391604.313405, 0.059644, -0.159653, -0.672929, 0.104221, 0.031033, 1.013217, -8.687501, 20.215336, 57.583111, 0.074976, -0.061854, -2.304229

149391604.314417, 0.124396, -0.181033, -0.706221, 0.104221, 0.031033, 1.013217, -8.788166, 20.161526, 57.561420, 0.075796, -0.063956, -2.310198

149391604.315455, 0.198616, -0.184698, -0.741346, 0.104221, 0.031033, 1.028805, -8.868698, 20.118479, 57.544071, 0.077427, -0.066022, -2.316588

149391604.316493, 0.242293, -0.174314, -0.784412, 0.104221, 0.031033, 1.028805, -8.892051, 20.145266, 57.506863, 0.079513, -0.067896, -2.323280

149391604.317539, 0.237712, -0.153544, -0.823202, 0.119110, 0.046549, 0.997629, -8.910733, 20.166695, 57.477097, 0.081892, -0.069808, -2.331491

149391604.318530, 0.223662, -0.136746, -0.848247, 0.119110, 0.046549, 0.997629, -8.925679, 20.183838, 57.453285, 0.083963, -0.071437, -2.339320

149391604.319589, 0.216331, -0.117503, -0.876042, 0.089333, 0.093098, 0.966453, -9.101927, 20.279186, 57.410912, 0.087105, -0.072282, -2.348695

149391604.320582, 0.212361, -0.098566, -0.905058, 0.089333, 0.093098, 0.966453, -9.242925, 20.355465, 57.377014, 0.089993, -0.072848, -2.357627

149391604.321618, 0.212361, -0.079324, -0.920635, 0.104221, 0.108614, 0.982041, -9.355723, 20.416487, 57.349895, 0.093225, -0.073448, -2.368041

149391604.322669, 0.183956, -0.064358, -0.924911, 0.104221, 0.108614, 0.982041, -9.445962, 20.465305, 57.328201, 0.096150, -0.073846, -2.378427

149391604.323719, 0.137530, -0.057639, -0.919413, 0.119110, 0.062065, 1.013217, -9.559225, 20.483952, 57.240871, 0.097587, -0.074395, -2.387103

149391604.324732, 0.123174, -0.064358, -0.908112, 0.119110, 0.062065, 1.013217, -9.649836, 20.498869, 57.171009, 0.098780, -0.075013, -2.395214

149391604.325764, 0.144860, -0.087876, -0.899865, 0.074444, 0.077582, 0.982041, -9.722324, 20.510803, 57.115120, 0.100534, -0.075022, -2.402382

149391604.326794, 0.164408, -0.101315, -0.908418, 0.074444, 0.077582, 0.982041, -9.862461, 20.663206, 57.140381, 0.102454, -0.075144, -2.409490

149391604.327856, 0.162881, -0.104981, -0.920329, 0.089333, 0.077582, 0.982041, -9.974570, 20.785130, 57.160587, 0.104419, -0.075569, -2.417470

149391604.328857, 0.159826, -0.112006, -0.928271, 0.089333, 0.077582, 0.982041, -10.064258, 20.882668, 57.176754, 0.106185, -0.076027, -2.424815

149391604.329867, 0.156161, -0.146214, -0.931936, 0.044666, 0.062065, 0.997629, -10.238689, 20.879065, 57.073067, 0.107495, -0.075955, -2.429838

149391604.330920, 0.178458, -0.198443, -0.924911, 0.044666, 0.062065, 0.997629, -10.378235, 20.876183, 56.990116, 0.109104, -0.076437, -2.435238

149391604.331958, 0.205947, -0.243647, -0.926133, 0.074444, 0.093098, 0.982041, -10.489871, 20.873877, 56.923756, 0.111650, -0.077857, -2.442971

149391604.332958, 0.217553, -0.262278, -0.920024, 0.074444, 0.093098, 0.982041, -10.579180, 20.872032, 56.870670, 0.114162, -0.079363, -2.450207

149391604.334010, 0.205947, -0.238455, -0.900782, 0.104221, 0.046549, 0.904101, -10.712236, 21.033823, 56.874847, 0.115841, -0.081519, -2.457430

149391604.335021, 0.194340, -0.205162, -0.875431, 0.104221, 0.046549, 0.904101, -10.818682, 21.163256, 56.878189, 0.117252, -0.083273, -2.463840

149391604.336071, 0.171127, -0.181339, -0.856494, 0.104221, 0.062065, 0.919689, -10.903837, 21.266802, 56.880863, 0.118805, -0.084729, -2.470705

149391604.337109, 0.176931, -0.147741, -0.839084, 0.104221, 0.062065, 0.919689, -11.033571, 21.329229, 56.836353, 0.120347, -0.085819, -2.477135

149391604.338147, 0.192813, -0.126361, -0.844277, 0.074444, 0.077582, 0.997629, -11.137358, 21.379171, 56.800747, 0.122184, -0.085900, -2.482511

149391604.339159, 0.184261, -0.113227, -0.856494, 0.074444, 0.077582, 0.997629, -11.220387, 21.419127, 56.772263, 0.123839, -0.085818, -2.487692

149391604.340171, 0.148525, -0.127888, -0.864741, 0.074444, 0.077582, 0.997629, -11.410029, 21.491907, 56.702827, 0.125116, -0.085863, -2.492940

149391604.341221, 0.107597, -0.165151, -0.872682, 0.074444, 0.093098, 0.950865, -11.561743, 21.550131, 56.647278, 0.126449, -0.086299, -2.499447

149391604.342259, 0.076749, -0.197527, -0.869628, 0.074444, 0.093098, 0.950865, -11.683114, 21.596710, 56.602837, 0.127424, -0.087042, -2.505768

149391604.343291, 0.056590, -0.219518, -0.854661, 0.074444, 0.093098, 0.904101, -11.862356, 21.593157, 56.590611, 0.128272, -0.088067, -2.512238

149391604.344296, 0.035821, -0.229903, -0.829921, 0.074444, 0.093098, 0.904101, -12.005750, 21.590315, 56.580830, 0.128848, -0.089170, -2.518197

149391604.345360, 0.021771, -0.237233, -0.809457, 0.074444, 0.077582, 0.919689, -12.120464, 21.588041, 56.573002, 0.128949, -0.090437, -2.523675

149391604.346384, 0.027574, -0.239676, -0.804265, 0.074444, 0.077582, 0.919689, -12.212236, 21.586222, 56.566742, 0.129073, -0.091660, -2.528729

149391604.347421, 0.042540, -0.241814, -0.798462, 0.074444, 0.093098, 0.950865, -12.408872, 21.564358, 56.561733, 0.129628, -0.092819, -2.534255

149391604.348460, 0.067891, -0.235400, -0.800905, 0.074444, 0.093098, 0.950865, -12.566180, 21.546867, 56.557728, 0.130442, -0.093884, -2.539803

149391604.349461, 0.079498, -0.220129, -0.805181, 0.029778, 0.093098, 0.950865, -12.692027, 21.532875, 56.554523, 0.131184, -0.093822, -2.543314

149391604.350468, 0.069113, -0.199359, -0.802738, 0.029778, 0.093098, 0.950865, -12.874850, 21.480864, 56.551960, 0.131816, -0.093563, -2.546914

149391604.351513, 0.021465, -0.165151, -0.808847, 0.119110, 0.093098, 0.935277, -13.021109, 21.439255, 56.549908, 0.132203, -0.094821, -2.554091

149391604.352548, -0.011216, -0.141632, -0.804265, 0.119110, 0.093098, 0.935277, -13.138115, 21.405968, 56.548267, 0.132243, -0.095816, -2.561038

149391604.353573, -0.032902, -0.137356, -0.785939, 0.074444, 0.124131, 0.966453, -13.272793, 21.256889, 56.523628, 0.132576, -0.095755, -2.567394

149391604.354587, -0.054587, -0.145909, -0.768835, 0.074444, 0.124131, 0.966453, -13.380535, 21.137627, 56.503918, 0.132666, -0.095796, -2.573518

149391604.355661, -0.056725, -0.173397, -0.763642, 0.089333, 0.093098, 0.966453, -13.466729, 21.042217, 56.488152, 0.132123, -0.096508, -2.579286

149391604.356665, -0.072608, -0.206690, -0.765170, 0.089333, 0.093098, 0.966453, -13.535685, 20.965889, 56.475536, 0.131432, -0.097483, -2.584542

149391604.357694, -0.072302, -0.244869, -0.773111, 0.133999, 0.062065, 0.950865, -13.590849, 20.904827, 56.465446, 0.130227, -0.099834, -2.590324

149391604.358719, -0.097653, -0.265638, -0.785328, 0.133999, 0.062065, 0.950865, -13.634980, 20.855976, 56.457375, 0.128823, -0.102333, -2.596143

149391604.359786, -0.140414, -0.267471, -0.789604, 0.133999, 0.077582, 0.982041, -13.670285, 20.816896, 56.450916, 0.127278, -0.104761, -2.602624

149391604.360811, -0.188061, -0.251894, -0.794186, 0.133999, 0.077582, 0.982041, -13.842283, 20.663183, 56.562370, 0.125327, -0.106922, -2.608833

149391604.361817, -0.206998, -0.227154, -0.794186, 0.148888, 0.062065, 0.997629, -13.979882, 20.540213, 56.651535, 0.122944, -0.109064, -2.614619

149391604.362862, -0.221659, -0.187447, -0.805181, 0.148888, 0.062065, 0.997629, -14.089961, 20.441835, 56.722866, 0.120436, -0.110811, -2.620764

149391604.363884, -0.213412, -0.142549, -0.822286, 0.089333, 0.077582, 0.966453, -14.219097, 20.199869, 56.779930, 0.118392, -0.110928, -2.626082

149391604.364913, -0.179815, -0.105286, -0.837252, 0.089333, 0.077582, 0.966453, -14.322406, 20.006296, 56.825581, 0.116732, -0.110666, -2.631629

149391604.365950, -0.156602, -0.070772, -0.852523, 0.074444, 0.124131, 1.013217, -14.405053, 19.851439, 56.862103, 0.116171, -0.109612, -2.638549

149391604.366955, -0.155991, -0.047865, -0.857105, 0.074444, 0.124131, 1.013217, -14.553316, 19.421429, 56.937965, 0.115645, -0.108363, -2.645468

149391604.367984, -0.178593, -0.054890, -0.863824, 0.074444, 0.124131, 1.013217, -14.671926, 19.077421, 56.998657, 0.114888, -0.107195, -2.652849

149391604.369055, -0.203638, -0.093374, -0.863214, 0.074444, 0.093098, 0.982041, -14.766815, 18.802216, 57.047211, 0.113283, -0.106523, -2.659606

149391604.370088, -0.252202, -0.144992, -0.860770, 0.074444, 0.093098, 0.982041, -14.842726, 18.582050, 57.086052, 0.111261, -0.106402, -2.666135

149391604.371112, -0.275415, -0.214936, -0.859854, 0.074444, 0.062065, 0.982041, -15.047209, 18.324286, 57.187099, 0.108425, -0.107061, -2.671529

149391604.372131, -0.275110, -0.276023, -0.864741, 0.074444, 0.062065, 0.982041, -15.210795, 18.118074, 57.267937, 0.105677, -0.108320, -2.677108

149391604.373163, -0.269612, -0.301068, -0.884899, 0.074444, 0.046549, 0.950865, -15.341664, 17.953106, 57.332607, 0.102766, -0.109915, -2.682617

149391604.374193, -0.253119, -0.296181, -0.918802, 0.074444, 0.046549, 0.950865, -15.343678, 17.617048, 57.430988, 0.100133, -0.111406, -2.688546

149391604.375212, -0.233265, -0.273885, -0.957592, 0.104221, 0.031033, 0.966453, -15.345288, 17.348202, 57.509693, 0.097539, -0.113216, -2.694956

149391604.376240, -0.187450, -0.246701, -1.006156, 0.104221, 0.031033, 0.966453, -15.346577, 17.133125, 57.572659, 0.095515, -0.114704, -2.701915

149391604.377310, -0.163627, -0.221350, -1.058385, 0.119110, 0.046549, 0.982041, -15.470825, 16.756983, 57.623032, 0.094149, -0.116137, -2.710874

149391604.378302, -0.152631, -0.198443, -1.099924, 0.119110, 0.046549, 0.982041, -15.570225, 16.456068, 57.663330, 0.093003, -0.117199, -2.719430

149391604.379369, -0.159351, -0.184088, -1.134438, 0.163776, 0.031033, 1.013217, -15.649744, 16.215338, 57.695568, 0.091560, -0.118947, -2.729415

149391604.380401, -0.161183, -0.194167, -1.166814, 0.163776, 0.031033, 1.013217, -15.816041, 15.757446, 57.744682, 0.090191, -0.120714, -2.739469

149391604.381426, -0.144690, -0.241509, -1.208047, 0.133999, 0.000000, 1.044393, -15.949079, 15.391133, 57.783974, 0.088452, -0.122346, -2.748188

149391604.382439, -0.139192, -0.300152, -1.251724, 0.133999, 0.000000, 1.044393, -16.055510, 15.098083, 57.815407, 0.086880, -0.124489, -2.757303

149391604.383476, -0.090628, -0.348716, -1.303647, 0.133999, 0.000000, 1.028805, -16.140654, 14.863642, 57.840553, 0.085939, -0.127131, -2.767320

149391604.384492, -0.035956, -0.387811, -1.359236, 0.133999, 0.000000, 1.028805, -16.126623, 14.492416, 57.977291, 0.085652, -0.130017, -2.777674

149391604.385539, 0.000085, -0.401861, -1.416352, 0.163776, -0.015483, 0.982041, -16.115398, 14.195436, 58.086681, 0.085657, -0.133757, -2.789234

149391604.386577, 0.044678, -0.384451, -1.468886, 0.163776, -0.015483, 0.982041, -16.106419, 13.957851, 58.174194, 0.086216, -0.137175, -2.801089

149391604.387590, 0.056285, -0.341691, -1.504011, 0.178665, 0.000000, 0.935277, -16.017090, 13.604519, 58.267529, 0.087246, -0.140406, -2.813852

149391604.388627, 0.016578, -0.287324, -1.529362, 0.178665, 0.000000, 0.935277, -15.945627, 13.321853, 58.342194, 0.087985, -0.143037, -2.827064

149391604.389643, -0.031985, -0.237844, -1.543107, 0.178665, 0.046549, 0.966453, -15.888457, 13.095719, 58.401928, 0.089143, -0.144851, -2.841614

149391604.390703, -0.080244, -0.198138, -1.552575, 0.178665, 0.046549, 0.966453, -15.883794, 12.669915, 58.496361, 0.089894, -0.146237, -2.856901

149391604.391727, -0.122393, -0.185004, -1.551964, 0.163776, 0.077582, 0.982041, -15.880063, 12.329271, 58.571907, 0.090763, -0.147053, -2.872582

149391604.392735, -0.163627, -0.195389, -1.544634, 0.163776, 0.077582, 0.982041, -15.877079, 12.056757, 58.632347, 0.091195, -0.147944, -2.887829

149391604.393765, -0.209747, -0.197527, -1.530278, 0.059555, 0.031033, 0.935277, -15.874691, 11.838745, 58.680698, 0.090046, -0.146972, -2.899222

149391604.394829, -0.215245, -0.191113, -1.526308, 0.059555, 0.031033, 0.935277, -15.872781, 11.664335, 58.719379, 0.088846, -0.145994, -2.911000

149391604.395853, -0.194475, -0.188058, -1.519894, 0.059555, 0.108614, 0.997629, -15.871253, 11.524808, 58.750324, 0.089514, -0.144776, -2.926007

149391604.396884, -0.187756, -0.171565, -1.510425, 0.059555, 0.108614, 0.997629, -15.870030, 11.413186, 58.775078, 0.090195, -0.143416, -2.940805

149391604.397907, -0.176149, -0.147741, -1.503095, 0.059555, 0.108614, 0.997629, -15.889588, 10.834092, 58.841530, 0.090952, -0.141842, -2.955668

149391604.398941, -0.155685, -0.131553, -1.488434, 0.014889, 0.077582, 0.950865, -15.905235, 10.370817, 58.894691, 0.091159, -0.139289, -2.968274

149391604.399957, -0.126669, -0.134913, -1.475911, 0.014889, 0.077582, 0.950865, -15.917752, 10.000197, 58.937222, 0.091600, -0.136828, -2.980660

149391604.400965, -0.090628, -0.135829, -1.467359, -0.015630, 0.046549, 0.950865, -15.907230, 9.458803, 58.994568, 0.091446, -0.133898, -2.990176

149391604.402039, -0.060391, -0.139800, -1.453615, -0.015630, 0.046549, 0.950865, -15.898812, 9.025688, 59.040447, 0.091651, -0.131074, -3.000812

149391604.403055, -0.069554, -0.153850, -1.423682, -0.000000, 0.062065, 0.997629, -15.892078, 8.679196, 59.077148, 0.092014, -0.128732, -3.011850

149391604.404091, -0.069248, -0.179812, -1.390696, -0.000000, 0.062065, 0.997629, -15.907227, 8.259146, 59.059864, 0.092346, -0.126726, -3.023130

149391604.405108, -0.068943, -0.206079, -1.361069, -0.000000, 0.062065, 1.013217, -15.919346, 7.923105, 59.046036, 0.092582, -0.125034, -3.033969

149391604.406130, -0.055809, -0.235095, -1.328387, -0.000000, 0.062065, 1.013217, -15.929041, 7.654273, 59.034973, 0.092901, -0.123694, -3.044687

149391604.407157, -0.021601, -0.259530, -1.295706, 0.014889, 0.046549, 0.950865, -15.936797, 7.439207, 59.026123, 0.093260, -0.123000, -3.054616

149391604.408227, 0.001918, -0.240287, -1.275853, 0.014889, 0.046549, 0.950865, -15.840320, 7.042664, 59.019043, 0.093894, -0.122186, -3.065101

149391604.409217, 0.016273, -0.191723, -1.263636, 0.029778, 0.015516, 0.919689, -15.763138, 6.725430, 59.013378, 0.093813, -0.121283, -3.072738

149391604.410284, 0.010470, -0.134608, -1.251724, 0.029778, 0.015516, 0.919689, -15.701392, 6.471642, 59.008846, 0.093773, -0.119867, -3.081259

149391604.411305, 0.008637, -0.094901, -1.235231, 0.029778, 0.015516, 0.950865, -15.569851, 6.064531, 58.981895, 0.093595, -0.118067, -3.089160

149391604.412327, -0.002969, -0.082989, -1.220570, 0.029778, 0.015516, 0.950865, -15.464618, 5.738842, 58.960335, 0.093275, -0.116192, -3.097074

149391604.413362, -0.018546, -0.088487, -1.208352, 0.044666, 0.031033, 0.966453, -15.380431, 5.478290, 58.943089, 0.093181, -0.114639, -3.106366

149391604.414663, -0.015797, -0.115365, -1.187278, 0.044666, 0.031033, 0.966453, -15.354155, 5.147400, 58.999264, 0.093401, -0.113414, -3.118773

149391604.415461, -0.056420, -0.119336, -1.179336, 0.059555, 0.077582, 0.919689, -15.333134, 4.882688, 59.044205, 0.093840, -0.112499, -3.128659

149391604.416431, -0.098570, -0.115365, -1.182391, 0.059555, 0.077582, 0.919689, -15.316317, 4.670918, 59.080154, 0.093993, -0.111572, -3.140597

149391604.417472, -0.119034, -0.124528, -1.164370, 0.044666, 0.077582, 0.904101, -15.159108, 4.277013, 59.062267, 0.093969, -0.110471, 3.129673

149391604.418531, -0.142857, -0.135829, -1.167730, 0.044666, 0.077582, 0.904101, -15.033341, 3.961889, 59.047958, 0.093696, -0.109510, 3.116415

149391604.419545, -0.178593, -0.131248, -1.165286, 0.089333, 0.077582, 0.966453, -14.932729, 3.709789, 59.036510, 0.092934, -0.109374, 3.104186

149391604.420573, -0.190505, -0.129721, -1.160705, 0.089333, 0.077582, 0.966453, -14.852239, 3.508110, 59.027351, 0.092053, -0.109242, 3.091897

149391604.421587, -0.218299, -0.116587, -1.147571, 0.074444, 0.077582, 0.966453, -14.705701, 3.203909, 59.066673, 0.090908, -0.108699, 3.079763

149391604.422619, -0.237236, -0.110173, -1.131994, 0.074444, 0.077582, 0.966453, -14.588470, 2.960548, 59.098129, 0.089554, -0.108133, 3.067577

149391604.423642, -0.240901, -0.108951, -1.103284, 0.074444, 0.077582, 0.966453, -14.494686, 2.765859, 59.123295, 0.088162, -0.107607, 3.055803

149391604.424679, -0.252508, -0.091236, -1.079460, 0.089333, 0.093098, 0.919689, -14.419659, 2.426435, 59.143429, 0.087048, -0.107358, 3.042944

149391604.425740, -0.258922, -0.075354, -1.057774, 0.089333, 0.093098, 0.919689, -14.359637, 2.154896, 59.159534, 0.085829, -0.106982, 3.030052

149391604.426757, -0.282745, -0.056417, -1.038532, 0.059555, 0.139647, 0.935277, -14.311620, 1.937664, 59.172421, 0.085471, -0.105938, 3.014579

149391604.427798, -0.299850, -0.042061, -1.024787, 0.059555, 0.139647, 0.935277, -14.129452, 1.518981, 59.182728, 0.084876, -0.104784, 2.998846

149391604.428835, -0.312678, -0.036258, -1.021428, 0.044666, 0.124131, 0.950865, -13.983717, 1.184034, 59.190975, 0.083807, -0.103221, 2.983821

149391604.429859, -0.311151, -0.029844, -1.018679, 0.044666, 0.124131, 0.950865, -13.867129, 0.916077, 59.197571, 0.082780, -0.101649, 2.968942

149391604.430896, -0.287022, -0.021292, -1.018068, 0.014889, 0.139647, 0.950865, -13.773859, 0.477222, 59.202850, 0.082440, -0.099515, 2.951824

149391604.431915, -0.249759, -0.015489, -1.023260, 0.014889, 0.139647, 0.950865, -13.699243, 0.126137, 59.160423, 0.082488, -0.097376, 2.934788

149391604.432959, -0.206693, -0.030455, -1.020817, -0.000000, 0.155164, 0.950865, -13.639549, -0.154730, 59.126484, 0.083342, -0.095225, 2.916002

149391604.433980, -0.174011, -0.074437, -1.014708, -0.000000, 0.155164, 0.950865, -13.591795, -0.379424, 59.099331, 0.084495, -0.093551, 2.897607

149391604.434998, -0.170957, -0.121779, -0.992412, 0.044666, 0.139647, 0.997629, -13.533055, -0.722445, 59.124256, 0.084937, -0.093086, 2.882328

149391604.436033, -0.182869, -0.142854, -0.966144, 0.044666, 0.139647, 0.997629, -13.486063, -0.996861, 59.144196, 0.085210, -0.092868, 2.867158

149391604.437066, -0.211885, -0.152628, -0.945986, 0.059555, 0.155164, 0.966453, -13.448469, -1.216395, 59.160149, 0.085531, -0.093161, 2.851750

149391604.438097, -0.226240, -0.137051, -0.934685, 0.059555, 0.155164, 0.966453, -13.254104, -1.494062, 59.172913, 0.085693, -0.093299, 2.836457

149391604.439121, -0.250064, -0.097650, -0.924605, 0.074444, 0.139647, 0.919689, -13.098611, -1.716196, 59.183121, 0.085383, -0.093367, 2.822407

149391604.440138, -0.260143, -0.047559, -0.916970, 0.074444, 0.139647, 0.919689, -12.974217, -1.893903, 59.191288, 0.084975, -0.092944, 2.808608

149391604.441172, -0.243345, -0.001133, -0.911777, 0.074444, 0.108614, 0.935277, -12.833630, -2.260559, 59.197823, 0.083994, -0.091941, 2.796404

149391604.442200, -0.234793, 0.047125, -0.905669, 0.074444, 0.108614, 0.935277, -12.721160, -2.553883, 59.203049, 0.083106, -0.090496, 2.784285

149391604.443234, -0.244872, 0.080417, -0.907807, 0.059555, 0.062065, 0.966453, -12.631184, -2.788543, 59.207230, 0.081068, -0.088343, 2.774594

149391604.444272, -0.268696, 0.099965, -0.910861, 0.059555, 0.062065, 0.966453, -12.559203, -2.976270, 59.210575, 0.078803, -0.086047, 2.764815

149391604.445310, -0.325201, 0.094467, -0.896811, 0.029778, 0.046549, 0.982041, -12.481082, -3.412167, 59.119957, 0.075649, -0.083260, 2.755099

149391604.446349, -0.363380, 0.063007, -0.863214, 0.029778, 0.046549, 0.982041, -12.418585, -3.760884, 59.047462, 0.072123, -0.080901, 2.745442

149391604.447376, -0.386898, 0.005586, -0.828089, -0.015630, 0.000000, 1.044393, -12.368587, -4.039857, 58.989468, 0.067391, -0.078386, 2.738329

149391604.448376, -0.358798, -0.035037, -0.791131, -0.015630, 0.000000, 1.044393, -12.205371, -4.385485, 58.943069, 0.063094, -0.076379, 2.731283

149391604.449407, -0.265336, -0.041145, -0.762726, -0.062521, 0.015516, 1.122332, -12.074798, -4.661987, 58.905952, 0.060199, -0.073616, 2.720657

149391604.450517, -0.180731, -0.016711, -0.735237, -0.062521, 0.015516, 1.122332, -11.970339, -4.883189, 58.876259, 0.058083, -0.070674, 2.709487

149391604.451473, -0.085131, 0.036740, -0.716911, -0.062521, 0.015516, 1.122332, -11.784091, -5.162191, 58.829178, 0.057085, -0.067347, 2.699216

149391604.452541, -0.009078, 0.104546, -0.725769, -0.078151, 0.046549, 1.059981, -11.635093, -5.385393, 58.791515, 0.057747, -0.062983, 2.683962

149391604.453553, 0.007110, 0.153415, -0.727601, -0.078151, 0.046549, 1.075569, -11.515894, -5.563955, 58.761383, 0.058464, -0.058313, 2.669181

149391604.454586, -0.006940, 0.186097, -0.708970, -0.109411, 0.062065, 1.075569, -11.379462, -5.808845, 58.783928, 0.059642, -0.052891, 2.650795

149391604.455611, -0.008772, 0.194649, -0.676289, -0.109411, 0.062065, 1.075569, -11.270317, -6.004757, 58.801964, 0.060690, -0.047513, 2.632816

149391604.456662, 0.020244, 0.160135, -0.634444, -0.109411, 0.077582, 1.153508, -11.183001, -6.161487, 58.816391, 0.062072, -0.042729, 2.615317

149391604.457686, 0.039791, 0.077974, -0.558392, -0.109411, 0.077582, 1.153508, -11.113148, -6.286870, 58.827934, 0.063525, -0.038943, 2.598845

149391604.458715, 0.053536, -0.035342, -0.454545, -0.109411, 0.077582, 1.137920, -11.159946, -6.427994, 58.790520, 0.065038, -0.036395, 2.583463

149391604.459751, 0.055674, -0.160875, -0.330539, -0.109411, 0.077582, 1.137920, -11.197386, -6.540893, 58.760586, 0.066474, -0.035234, 2.569507

149391604.460778, 0.071556, -0.292822, -0.205312, -0.109411, 0.015516, 0.982041, -11.227337, -6.631212, 58.736641, 0.066926, -0.034935, 2.558408

149391604.461811, 0.046511, -0.394531, -0.100548, -0.109411, 0.015516, 0.982041, -11.066471, -6.683059, 58.717484, 0.067101, -0.035757, 2.548140

149391604.462801, 0.011997, -0.449509, -0.024801, -0.078151, 0.046549, 0.935277, -10.937778, -6.724536, 58.702160, 0.067398, -0.037675, 2.539289

149391604.463884, -0.017019, -0.481579, 0.036896, -0.078151, 0.046549, 0.935277, -10.834824, -6.757718, 58.689899, 0.067383, -0.040344, 2.531013

149391604.464887, -0.017935, -0.477608, 0.081795, -0.000000, 0.062065, 0.919689, -10.567633, -6.763855, 58.726738, 0.067266, -0.044275, 2.527873

149391604.465904, 0.005888, -0.428434, 0.105313, -0.000000, 0.062065, 0.919689, -10.353880, -6.768765, 58.756210, 0.067382, -0.047724, 2.524859

149391604.466962, 0.006499, -0.367653, 0.117836, 0.074444, 0.108614, 0.919689, -10.182878, -6.772693, 58.779789, 0.068367, -0.052323, 2.523272

149391604.467995, -0.010300, -0.304123, 0.136162, 0.074444, 0.108614, 0.919689, -10.046077, -6.775836, 58.798653, 0.069149, -0.056110, 2.521822

149391604.469037, -0.065888, -0.242120, 0.153266, 0.133999, 0.124131, 0.904101, -9.936636, -6.778349, 58.813744, 0.069684, -0.060517, 2.522054

149391604.470050, -0.125448, -0.181033, 0.155404, 0.133999, 0.124131, 0.904101, -9.849083, -6.780361, 58.825813, 0.069628, -0.064165, 2.522257

149391604.471063, -0.158740, -0.126972, 0.136773, 0.119110, 0.108614, 0.982041, -9.779040, -6.781970, 58.835472, 0.068750, -0.066654, 2.522508

149391604.472125, -0.159285, -0.075561, 0.090239, 0.119110, 0.108614, 0.982041, -9.538179, -6.783257, 58.819874, 0.067828, -0.068593, 2.522226

149391604.473163, -0.127526, -0.035399, 0.044984, 0.089333, 0.093098, 0.997629, -9.345490, -6.784286, 58.807396, 0.066989, -0.069411, 2.521016

149391604.474191, -0.066237, -0.011631, -0.005298, 0.089333, 0.093098, 0.997629, -9.191339, -6.785110, 58.797413, 0.066830, -0.069937, 2.519230

149391604.475188, -0.005341, 0.002667, -0.059605, 0.089333, 0.077582, 0.982041, -9.068019, -6.867402, 58.742779, 0.067047, -0.070288, 2.517557

149391604.476201, 0.045055, 0.010914, -0.106947, 0.089333, 0.077582, 0.982041, -8.969362, -6.933235, 58.699070, 0.067793, -0.070518, 2.515320

149391604.477235, 0.102782, 0.020077, -0.150930, 0.104221, 0.093098, 0.966453, -8.890437, -6.985902, 58.664104, 0.069479, -0.070957, 2.512386

149391604.478276, 0.147070, 0.035959, -0.176891, 0.104221, 0.093098, 0.966453, -8.847833, -7.007627, 58.729427, 0.071610, -0.071200, 2.509201

149391604.479304, 0.163258, 0.063143, -0.188803, 0.104221, 0.093098, 0.966453, -8.813749, -7.025007, 58.781685, 0.073849, -0.071157, 2.505965

149391604.480327, 0.161730, 0.084218, -0.183916, 0.104221, 0.093098, 0.982041, -8.786483, -7.038911, 58.823494, 0.075987, -0.070871, 2.502847

149391604.481357, 0.149819, 0.095213, -0.166507, 0.104221, 0.093098, 0.982041, -8.764669, -7.050035, 58.856941, 0.077960, -0.070482, 2.499940

149391604.482423, 0.128438, 0.099489, -0.143599, 0.104221, 0.124131, 0.982041, -8.767756, -7.079341, 58.860374, 0.080308, -0.070074, 2.495899

149391604.483414, 0.092397, 0.097046, -0.110613, 0.104221, 0.124131, 0.982041, -8.770225, -7.102787, 58.863121, 0.082136, -0.069799, 2.492344

149391604.484479, 0.046277, 0.082691, -0.069379, 0.119110, 0.155164, 0.982041, -8.772200, -7.121543, 58.865318, 0.084071, -0.069980, 2.488554

149391604.485477, 0.004339, 0.054339, -0.028151, 0.119110, 0.155164, 0.982041, -8.753243, -7.116140, 58.843750, 0.085501, -0.070520, 2.485253

149391604.486508, -0.026250, 0.035852, 0.012209, 0.089333, 0.124131, 0.982041, -8.738078, -7.111818, 58.826496, 0.085998, -0.070618, 2.482438

149391604.487626, -0.045133, 0.029118, 0.037068, 0.089333, 0.124131, 0.982041, -8.725945, -7.108360, 58.812695, 0.086238, -0.070779, 2.479951

149391604.488577, -0.033718, 0.029402, 0.046753, 0.089333, 0.124131, 0.997629, -8.695704, -7.105594, 58.848301, 0.086614, -0.070953, 2.477542

149391604.489643, -0.048257, 0.024597, 0.055934, 0.089333, 0.124131, 0.997629, -8.671510, -7.103381, 58.876785, 0.086784, -0.071153, 2.475311

149391604.490653, -0.003886, 0.030956, 0.064026, 0.089333, 0.077582, 0.997629, -8.652155, -7.101610, 58.899574, 0.086509, -0.071258, 2.475268

149391604.491686, 0.018322, 0.048842, 0.061482, 0.089333, 0.077582, 0.997629, -8.616135, -7.079786, 58.847832, 0.086463, -0.071171, 2.475225

149391604.492710, 0.046940, 0.076518, 0.053012, 0.104221, 0.077582, 0.982041, -8.587318, -7.062326, 58.806438, 0.086738, -0.071136, 2.475693

149391604.493741, 0.063294, 0.089259, 0.052195, 0.104221, 0.077582, 0.982041, -8.564265, -7.048358, 58.773323, 0.087174, -0.070968, 2.476154

149391604.494753, 0.065549, 0.078709, 0.049900, 0.074444, 0.077582, 0.966453, -8.545823, -7.037184, 58.746830, 0.087639, -0.070341, 2.475326

149391604.495828, 0.085399, 0.059112, 0.047055, 0.074444, 0.077582, 0.966453, -8.572142, -6.987428, 58.795609, 0.088345, -0.069885, 2.474563

149391604.496816, 0.103634, 0.039329, 0.042477, 0.104221, 0.093098, 0.982041, -8.593197, -6.947624, 58.834633, 0.089427, -0.070252, 2.474235

149391604.497846, 0.112216, 0.042388, 0.027529, 0.104221, 0.093098, 0.982041, -8.610041, -6.915780, 58.865852, 0.090626, -0.070552, 2.473821

149391604.498917, 0.110995, 0.063463, 0.010425, 0.104221, 0.108614, 0.904101, -8.664589, -6.788264, 58.867500, 0.092326, -0.070785, 2.472621

149391604.499904, 0.091316, 0.092027, -0.002353, 0.104221, 0.108614, 0.904101, -8.708227, -6.686252, 58.868820, 0.093722, -0.070776, 2.471437

149391604.500943, 0.047234, 0.113711, -0.010077, 0.104221, 0.124131, 0.888513, -8.743137, -6.604641, 58.869877, 0.095059, -0.070551, 2.469576

149391604.501980, -0.001900, 0.124772, -0.014051, 0.104221, 0.124131, 0.888513, -8.853211, -6.580170, 58.870720, 0.095874, -0.070215, 2.467812

149391604.503045, -0.007092, 0.130270, -0.025657, 0.074444, 0.093098, 0.950865, -8.941271, -6.560592, 58.871395, 0.095838, -0.068987, 2.466338

149391604.504045, -0.018903, 0.126332, -0.031695, 0.074444, 0.093098, 0.950865, -9.011718, -6.544930, 58.871937, 0.095695, -0.067902, 2.464905

149391604.505080, -0.067243, 0.114702, -0.027739, 0.104221, 0.093098, 0.919689, -9.068075, -6.532401, 58.872368, 0.095128, -0.067604, 2.464754

149391604.506161, -0.055063, 0.082387, -0.020577, 0.104221, 0.093098, 0.919689, -9.113161, -6.665235, 58.896038, 0.094667, -0.067608, 2.464565

149391604.507118, -0.079618, 0.050453, -0.006390, 0.104221, 0.093098, 0.919689, -9.149230, -6.771502, 58.914974, 0.094043, -0.068025, 2.464440

149391604.508190, -0.089304, 0.029657, 0.007798, 0.074444, 0.062065, 0.935277, -9.178085, -6.856515, 58.930122, 0.092544, -0.067951, 2.464839

149391604.509193, -0.078155, 0.001524, 0.014511, 0.074444, 0.062065, 0.935277, -9.201170, -6.842893, 58.825623, 0.091242, -0.068179, 2.465291

149391604.510229, -0.080903, -0.006417, 0.017871, 0.089333, 0.108614, 0.950865, -9.219637, -6.831995, 58.742023, 0.090840, -0.068774, 2.464061

149391604.511273, -0.076210, -0.006880, 0.019288, 0.089333, 0.108614, 0.950865, -9.234411, -6.823277, 58.675144, 0.090489, -0.069364, 2.462889

149391604.512319, -0.091176, 0.008697, 0.025702, 0.089333, 0.093098, 0.904101, -9.328376, -6.877528, 58.644962, 0.089768, -0.069875, 2.462520

149391604.513343, -0.108094, 0.019577, 0.022470, 0.089333, 0.093098, 0.904101, -9.403547, -6.920928, 58.620819, 0.088914, -0.070265, 2.462147

