Using settings file RTIMULib.ini
IMU Name: L3GD20 + LSM303DLHC
IMU Init Succeeded
Recommended Poll Interval: 4mS

Time, gyroX, gyroY, gyroZ, accelX, accelY, accelZ, magX, magY, magZ, phi, theta, psi

149391476.228307, -0.106400, -0.069245, 0.025310, -0.062521, 0.062065, 1.013217, -3.378392, 3.499462, 11.005129, 0.061179, 0.061512, -2.331406

149391476.229108, -0.046453, -0.060013, 0.049295, -0.046891, 0.031033, 1.013217, -6.081105, 6.135767, 19.762583, 0.060227, 0.060709, -2.330847

149391476.229867, -0.002717, -0.056358, 0.090417, -0.046891, 0.031033, 1.013217, -8.243276, 8.244810, 26.768545, 0.059654, 0.059960, -2.330107

149391476.230617, 0.025147, -0.049191, 0.129177, -0.046891, 0.031033, 0.997629, -9.973012, 9.932045, 32.373318, 0.059323, 0.059282, -2.329138

149391476.231594, 0.032093, -0.042176, 0.165328, -0.031260, 0.062065, 0.997629, -11.356801, 11.281833, 36.857136, 0.059754, 0.058222, -2.329380

149391476.232627, 0.041256, -0.034845, 0.198010, -0.031260, 0.062065, 0.997629, -12.443295, 12.504520, 40.490837, 0.060312, 0.057210, -2.329055

149391476.233663, 0.043088, -0.033929, 0.227331, -0.031260, 0.077582, 1.013217, -13.312491, 13.482670, 43.397797, 0.061173, 0.056180, -2.328948

149391476.234699, 0.030871, -0.054698, 0.254209, -0.031260, 0.077582, 1.013217, -14.007848, 14.265190, 45.723366, 0.061907, 0.054943, -2.328514

149391476.235730, 0.014378, -0.084631, 0.266732, -0.031260, 0.077582, 0.966453, -14.440915, 14.891206, 47.560497, 0.062537, 0.053450, -2.327951

149391476.236763, 0.007047, -0.123115, 0.252377, -0.031260, 0.077582, 0.966453, -14.787369, 15.392018, 49.030201, 0.063071, 0.051605, -2.327457

149391476.237797, 0.007658, -0.171374, 0.234661, -0.015630, 0.093098, 0.935277, -15.064532, 15.792668, 50.205967, 0.063930, 0.048966, -2.328516

149391476.238847, 0.017737, -0.199474, 0.207172, -0.015630, 0.093098, 0.935277, -15.204118, 16.154005, 51.053284, 0.064865, 0.046081, -2.329662

149391476.239871, 0.017127, -0.190921, 0.189152, -0.000000, 0.046549, 0.966453, -15.315785, 16.443073, 51.731136, 0.064750, 0.043136, -2.329372

149391476.240914, 0.006742, -0.157629, 0.184265, -0.000000, 0.046549, 0.966453, -15.405120, 16.674328, 52.273418, 0.064532, 0.040555, -2.328995

149391476.241897, 0.003993, -0.124643, 0.203813, 0.014889, 0.031033, 0.950865, -15.476587, 16.859333, 52.777214, 0.063971, 0.038128, -2.328424

149391476.242935, -0.006086, -0.095626, 0.235578, 0.014889, 0.031033, 0.950865, -15.431080, 17.007336, 53.180252, 0.063338, 0.035948, -2.327304

149391476.243960, -0.004254, -0.069665, 0.259401, 0.014889, 0.031033, 0.982041, -15.394673, 17.125738, 53.502682, 0.062723, 0.034080, -2.325835

149391476.245035, 0.028733, -0.045535, 0.272840, 0.014889, 0.031033, 0.982041, -15.365548, 17.220461, 53.760624, 0.062473, 0.032453, -2.324042

149391476.246060, 0.060803, -0.029348, 0.262761, 0.014889, 0.062065, 0.950865, -15.260103, 17.377872, 54.036953, 0.063170, 0.031030, -2.323599

149391476.247086, 0.067218, -0.012854, 0.243824, 0.014889, 0.062065, 0.950865, -15.175747, 17.503801, 54.258015, 0.063913, 0.029812, -2.323215

149391476.248110, 0.077297, -0.007967, 0.208089, 0.029778, 0.046549, 0.904101, -15.108262, 17.604544, 54.434864, 0.064439, 0.028359, -2.323148

149391476.249135, 0.067828, -0.021406, 0.174797, 0.029778, 0.046549, 0.904101, -15.033738, 17.664730, 54.506371, 0.064851, 0.026820, -2.323344

149391476.250160, 0.032314, -0.026637, 0.153775, 0.014889, 0.062065, 0.904101, -14.974119, 17.712879, 54.563576, 0.065248, 0.025585, -2.323783

149391476.251211, -0.007236, -0.020993, 0.137680, 0.014889, 0.062065, 0.904101, -14.926424, 17.751398, 54.609341, 0.065236, 0.024434, -2.324283

149391476.252239, -0.016094, -0.021298, 0.121798, 0.074444, 0.077582, 0.919689, -14.970413, 17.823029, 54.599304, 0.065252, 0.022008, -2.327479

149391476.253266, -0.007981, -0.025036, 0.101891, 0.074444, 0.077582, 0.919689, -15.005605, 17.880333, 54.591274, 0.065352, 0.019607, -2.330792

149391476.254286, -0.021420, -0.012208, 0.096088, -0.046891, 0.015516, 0.826161, -15.033757, 17.926178, 54.584850, 0.064174, 0.020097, -2.326896

149391476.255311, -0.037115, 0.004793, 0.102138, -0.046891, 0.015516, 0.826161, -15.056279, 17.962852, 54.579712, 0.062864, 0.020748, -2.322999

149391476.256336, -0.008099, 0.001434, 0.092670, 0.044666, 0.046549, 0.997629, -14.971615, 17.951376, 54.692223, 0.062416, 0.019411, -2.323993

149391476.257399, 0.057852, 0.010074, 0.074274, 0.044666, 0.046549, 0.997629, -14.903884, 17.942196, 54.782230, 0.062659, 0.018201, -2.325091

149391476.258412, 0.076178, 0.021070, 0.055031, 0.044666, 0.046549, 0.935277, -14.849699, 17.934851, 54.854237, 0.063101, 0.017073, -2.326569

149391476.259437, 0.054492, 0.034509, 0.060224, 0.074444, 0.077582, 0.982041, -14.785814, 17.949383, 54.888519, 0.063795, 0.015507, -2.329812

149391476.260462, 0.034508, 0.042753, 0.054770, 0.074444, 0.077582, 0.982041, -14.734707, 17.961010, 54.915943, 0.064281, 0.014060, -2.333009

149391476.261487, 0.031148, 0.035117, 0.038277, 0.029778, 0.093098, 0.950865, -14.693821, 17.970310, 54.937881, 0.065194, 0.013434, -2.335737

149391476.262513, 0.067867, 0.003580, 0.001291, 0.029778, 0.093098, 0.950865, -14.722721, 17.998159, 54.885464, 0.066456, 0.012531, -2.338792

149391476.263538, 0.077203, -0.024003, -0.029832, 0.059555, 0.077582, 0.950865, -14.745841, 18.020439, 54.843529, 0.067406, 0.010793, -2.342396

149391476.264612, 0.025644, -0.013631, -0.018739, 0.059555, 0.077582, 0.950865, -14.764338, 18.038261, 54.809978, 0.067839, 0.009182, -2.345813

149391476.265638, -0.058617, 0.022835, 0.008566, 0.044666, 0.062065, 0.982041, -14.799671, 18.093336, 54.829788, 0.067105, 0.008319, -2.347620

149391476.266662, -0.101336, 0.062421, 0.020047, 0.044666, 0.062065, 0.982041, -14.827938, 18.137396, 54.845634, 0.065960, 0.007861, -2.349238

149391476.267688, -0.112637, 0.088688, 0.009356, 0.089333, 0.077582, 1.013217, -14.850552, 18.172644, 54.858311, 0.064871, 0.006817, -2.352612

149391476.268713, -0.115648, 0.122103, -0.001904, 0.089333, 0.077582, 1.013217, -14.868642, 18.200842, 54.868454, 0.063777, 0.006136, -2.356001

149391476.269738, -0.123379, 0.168569, -0.008741, 0.074444, 0.062065, 0.997629, -14.883115, 18.141768, 54.853245, 0.062403, 0.006224, -2.358519

149391476.270763, -0.142927, 0.221714, -0.009962, 0.074444, 0.062065, 0.997629, -14.894692, 18.094509, 54.841076, 0.060859, 0.006843, -2.361003

149391476.271801, -0.159115, 0.248592, -0.012100, 0.044666, 0.062065, 0.982041, -14.903955, 18.056702, 54.831341, 0.059241, 0.008328, -2.362659

149391476.272838, -0.154839, 0.245233, -0.018820, 0.044666, 0.062065, 0.982041, -14.993510, 17.924416, 54.846878, 0.057694, 0.009749, -2.364496

149391476.273864, -0.143843, 0.218660, -0.032259, 0.029778, 0.062065, 0.982041, -15.065154, 17.818586, 54.859306, 0.056326, 0.011158, -2.366084

149391476.274897, -0.129154, 0.164721, -0.046231, 0.029778, 0.062065, 0.982041, -15.122470, 17.733923, 54.869251, 0.055120, 0.012015, -2.367908

149391476.275925, -0.111484, 0.117300, -0.055125, -0.000000, 0.031033, 0.982041, -15.188858, 17.666193, 54.877205, 0.053523, 0.012978, -2.367695

149391476.276952, -0.076845, 0.075960, -0.054263, -0.000000, 0.031033, 0.982041, -15.241969, 17.612009, 54.883568, 0.052309, 0.013504, -2.367569

149391476.277965, -0.033068, 0.030707, -0.055513, 0.029778, 0.031033, 1.013217, -15.284457, 17.568661, 54.888660, 0.051532, 0.012984, -2.368510

149391476.279039, -0.000080, 0.011522, -0.065108, 0.029778, 0.031033, 1.013217, -15.359521, 17.472757, 54.916058, 0.051094, 0.012298, -2.369681

149391476.280052, 0.022048, 0.011280, -0.063139, 0.014889, 0.015516, 0.997629, -15.419572, 17.396036, 54.937973, 0.050600, 0.011889, -2.369859

149391476.281060, 0.051185, 0.012836, -0.051046, 0.014889, 0.015516, 0.997629, -15.467612, 17.334658, 54.955505, 0.050404, 0.011499, -2.369977

149391476.282112, 0.071955, 0.006728, -0.044327, 0.014889, 0.077582, 0.982041, -15.506045, 17.285555, 54.969532, 0.051683, 0.011031, -2.372496

149391476.283116, 0.072234, -0.003580, -0.039207, 0.014889, 0.077582, 0.982041, -15.536792, 17.327906, 54.934105, 0.052906, 0.010468, -2.374882

149391476.284167, 0.059650, -0.016063, -0.035990, -0.000000, 0.062065, 0.950865, -15.561389, 17.361786, 54.905766, 0.053758, 0.010108, -2.376121

149391476.285177, 0.048527, -0.020210, -0.042109, -0.000000, 0.062065, 0.950865, -15.581066, 17.388891, 54.883091, 0.054458, 0.009725, -2.377376

149391476.286253, 0.043320, -0.024867, -0.057070, -0.000000, 0.062065, 0.966453, -15.637881, 17.451391, 54.911602, 0.055099, 0.009298, -2.378745

149391476.287277, 0.027756, -0.025241, -0.057064, -0.000000, 0.062065, 0.966453, -15.683333, 17.501390, 54.934410, 0.055550, 0.008887, -2.380051

149391476.288290, 0.005644, -0.030092, -0.051677, -0.000000, 0.062065, 0.966453, -15.719695, 17.541391, 54.952656, 0.055770, 0.008437, -2.381270

149391476.289303, -0.001352, -0.044109, -0.047300, -0.000000, 0.077582, 0.950865, -15.769320, 17.552982, 54.920605, 0.056259, 0.007840, -2.383157

149391476.290363, -0.015078, -0.056636, -0.058264, -0.000000, 0.077582, 0.950865, -15.809021, 17.562256, 54.894962, 0.056596, 0.007113, -2.385167

149391476.291378, -0.016255, -0.075775, -0.065410, -0.000000, 0.077582, 0.997629, -15.840781, 17.569675, 54.874451, 0.056846, 0.006243, -2.387046

149391476.292438, -0.003953, -0.084645, -0.082870, -0.000000, 0.077582, 0.997629, -15.866189, 17.575611, 54.858040, 0.057212, 0.005277, -2.389114

149391476.293453, -0.009850, -0.083461, -0.083816, -0.015630, 0.062065, 0.966453, -15.886516, 17.580359, 54.844913, 0.057248, 0.004713, -2.389994

149391476.294466, -0.008446, -0.091870, -0.084743, -0.015630, 0.062065, 0.966453, -15.902777, 17.584156, 54.834412, 0.057297, 0.004079, -2.390875

149391476.295528, -0.011857, -0.103989, -0.074288, -0.015630, 0.062065, 0.982041, -15.915786, 17.587194, 54.826008, 0.057287, 0.003279, -2.391657

149391476.296541, -0.033135, -0.096717, -0.046711, -0.015630, 0.062065, 0.982041, -15.844048, 17.589626, 54.912582, 0.057072, 0.002599, -2.392061

149391476.297545, -0.057853, -0.076741, -0.019714, -0.000000, 0.062065, 0.997629, -15.786657, 17.591572, 54.981842, 0.056604, 0.001804, -2.392676

149391476.298599, -0.074575, -0.048813, -0.011824, -0.000000, 0.062065, 0.997629, -15.740745, 17.593128, 55.037251, 0.055943, 0.001270, -2.393166

149391476.299604, -0.078088, -0.034629, -0.013070, -0.015630, 0.062065, 0.982041, -15.662942, 17.553556, 55.034927, 0.055316, 0.001230, -2.393078

149391476.300648, -0.079434, -0.036292, -0.024456, -0.015630, 0.062065, 0.982041, -15.600699, 17.521898, 55.033070, 0.054657, 0.001167, -2.393094

149391476.301704, -0.067895, -0.042405, -0.035303, -0.000000, 0.077582, 0.982041, -15.550906, 17.496572, 55.031586, 0.054437, 0.000713, -2.394445

149391476.302717, -0.043442, -0.045399, -0.051603, -0.000000, 0.077582, 0.982041, -15.511071, 17.394680, 55.007072, 0.054493, 0.000265, -2.395966

149391476.303727, -0.006348, -0.057600, -0.068457, -0.000000, 0.046549, 0.997629, -15.479203, 17.313166, 54.987461, 0.054273, -0.000274, -2.396373

149391476.304775, 0.000363, -0.067749, -0.068212, -0.000000, 0.046549, 0.997629, -15.453709, 17.247953, 54.971775, 0.054124, -0.000926, -2.396829

149391476.305825, -0.000840, -0.075891, -0.054516, -0.000000, 0.046549, 0.997629, -15.433313, 17.195784, 54.959225, 0.053966, -0.001658, -2.397163

149391476.306830, -0.005607, -0.092532, -0.039316, -0.000000, 0.046549, 0.997629, -15.458070, 17.194864, 54.949184, 0.053765, -0.002515, -2.397340

149391476.307881, -0.001302, -0.096863, -0.038189, -0.000000, 0.046549, 0.997629, -15.477875, 17.194128, 54.941151, 0.053609, -0.003441, -2.397537

149391476.308893, 0.025037, -0.090040, -0.051737, -0.000000, 0.046549, 0.997629, -15.493719, 17.193541, 54.934727, 0.053720, -0.004237, -2.397854

149391476.309946, 0.052915, -0.074091, -0.054834, -0.000000, 0.015516, 0.997629, -15.383176, 17.172663, 55.022881, 0.053502, -0.004913, -2.397038

149391476.310957, 0.061967, -0.061170, -0.030955, -0.000000, 0.015516, 0.997629, -15.294742, 17.155960, 55.093407, 0.053355, -0.005431, -2.395923

149391476.312018, 0.062756, -0.039849, -0.003991, 0.014889, 0.015516, 0.966453, -15.223994, 17.142597, 55.149826, 0.053267, -0.006059, -2.395085

149391476.313025, 0.063827, -0.026452, 0.020312, 0.014889, 0.015516, 0.966453, -15.126324, 17.091091, 55.078342, 0.053155, -0.006534, -2.393983

149391476.314075, 0.069360, -0.012440, 0.027359, 0.014889, 0.031033, 0.982041, -15.048187, 17.049887, 55.021152, 0.053437, -0.006853, -2.393330

149391476.315082, 0.070890, 0.001576, 0.034258, 0.014889, 0.031033, 0.982041, -14.985678, 17.016922, 54.975403, 0.053699, -0.007026, -2.392606

149391476.316094, 0.069397, 0.011709, 0.044600, 0.014889, 0.031033, 0.982041, -14.997279, 16.929327, 55.008774, 0.053944, -0.007100, -2.391853

149391476.317145, 0.070029, 0.020732, 0.055322, -0.000000, 0.031033, 0.982041, -15.006560, 16.859251, 55.035473, 0.054212, -0.006784, -2.390487

149391476.318156, 0.064967, 0.042721, 0.066716, -0.000000, 0.031033, 0.982041, -15.013986, 16.803190, 55.056831, 0.054396, -0.006270, -2.389089

149391476.319219, 0.059712, 0.052585, 0.072786, -0.000000, 0.046549, 0.966453, -15.019925, 16.758341, 55.073917, 0.054889, -0.005639, -2.388283

149391476.320227, 0.028854, 0.068521, 0.065872, -0.000000, 0.046549, 0.966453, -14.983604, 16.865318, 55.064262, 0.055035, -0.004887, -2.387493

149391476.321282, -0.010026, 0.085617, 0.051628, 0.014889, 0.046549, 0.950865, -14.954548, 16.950901, 55.056538, 0.054804, -0.004246, -2.387340

149391476.322288, -0.039715, 0.088599, 0.032601, 0.014889, 0.046549, 0.950865, -14.931303, 17.019367, 55.050358, 0.054291, -0.003618, -2.387342

149391476.323345, -0.059510, 0.083743, 0.009190, 0.029778, 0.077582, 0.966453, -14.953779, 17.033323, 54.975445, 0.054160, -0.003326, -2.389349

149391476.324348, -0.068423, 0.079887, -0.021800, 0.029778, 0.077582, 0.966453, -14.971761, 17.044489, 54.915512, 0.053977, -0.003105, -2.391626

149391476.325390, -0.065189, 0.076112, -0.047355, 0.014889, 0.062065, 0.982041, -14.986146, 17.053421, 54.867565, 0.053490, -0.002547, -2.392899

149391476.326402, -0.060228, 0.071520, -0.056225, 0.014889, 0.062065, 0.982041, -14.977118, 17.060566, 54.852531, 0.053081, -0.002065, -2.394213

149391476.327458, -0.069724, 0.075994, -0.049360, 0.029778, 0.046549, 0.982041, -14.969895, 17.066282, 54.840504, 0.052237, -0.001816, -2.395332

149391476.328470, -0.092177, 0.086355, -0.030979, 0.029778, 0.046549, 0.982041, -14.964117, 17.070856, 54.830883, 0.051217, -0.001512, -2.396216

149391476.329522, -0.084555, 0.083939, -0.013283, 0.014889, 0.046549, 0.982041, -14.959495, 17.033697, 54.823185, 0.050268, -0.000914, -2.396421

149391476.330524, -0.064835, 0.063932, -0.005828, 0.014889, 0.046549, 0.982041, -15.037942, 17.003971, 54.933647, 0.049572, -0.000568, -2.396630

149391476.331583, -0.047025, 0.023118, -0.002416, 0.014889, 0.062065, 0.966453, -15.100699, 16.980190, 55.022018, 0.049368, -0.000630, -2.397557

149391476.332596, -0.025404, -0.003681, -0.010737, 0.014889, 0.062065, 0.966453, -15.150906, 16.961164, 55.092716, 0.049404, -0.000963, -2.398610

149391476.333659, -0.013208, -0.008387, -0.033833, 0.029778, 0.062065, 0.982041, -15.211607, 17.027576, 55.102627, 0.049522, -0.001627, -2.400329

149391476.334668, 0.006505, -0.009407, -0.063918, 0.029778, 0.062065, 0.982041, -15.260168, 17.080708, 55.110554, 0.049841, -0.002270, -2.402284

149391476.335716, 0.002481, 0.012020, -0.086194, 0.029778, 0.062065, 0.997629, -15.299017, 17.123211, 55.116898, 0.050097, -0.002660, -2.404379

149391476.336721, -0.001159, 0.039874, -0.097834, 0.029778, 0.062065, 0.997629, -15.309560, 17.095989, 55.075321, 0.050313, -0.002769, -2.406520

149391476.337779, -0.015820, 0.057283, -0.101805, 0.014889, 0.046549, 0.950865, -15.317994, 17.074213, 55.042061, 0.050122, -0.002380, -2.407732

149391476.338784, -0.047181, 0.064748, -0.084114, 0.014889, 0.046549, 0.950865, -15.324741, 17.056791, 55.015453, 0.049634, -0.001966, -2.408706

149391476.339797, -0.053900, 0.061083, -0.069758, -0.000000, 0.093098, 0.982041, -15.330139, 17.002037, 55.040817, 0.049999, -0.001323, -2.410962

149391476.340857, -0.042001, 0.051126, -0.070084, -0.000000, 0.093098, 0.982041, -15.334457, 16.958235, 55.061108, 0.050454, -0.000764, -2.413252

149391476.341872, -0.022280, 0.046761, -0.062030, -0.000000, 0.062065, 0.966453, -15.337913, 16.923193, 55.077339, 0.050506, -0.000255, -2.414081

149391476.342922, -0.023605, 0.044281, -0.031123, -0.000000, 0.062065, 0.966453, -15.340676, 16.895159, 55.090324, 0.050535, 0.000220, -2.414620

149391476.343935, -0.019221, 0.031090, 0.003619, -0.000000, 0.062065, 0.966453, -15.445569, 16.852324, 55.124035, 0.050616, 0.000520, -2.414901

149391476.344997, -0.020311, 0.035817, 0.029257, -0.000000, 0.031033, 0.982041, -15.529484, 16.818056, 55.151005, 0.050025, 0.000858, -2.413706

149391476.346011, -0.021977, 0.040445, 0.041498, -0.000000, 0.031033, 0.982041, -15.596615, 16.790642, 55.172581, 0.049439, 0.001215, -2.412488

149391476.347020, -0.027494, 0.057235, 0.038830, -0.000000, 0.062065, 0.982041, -15.670856, 16.646261, 55.119869, 0.049440, 0.001733, -2.412705

149391476.348073, -0.022430, 0.065000, 0.042199, -0.000000, 0.062065, 0.982041, -15.730249, 16.530756, 55.077702, 0.049483, 0.002341, -2.412984

149391476.349079, -0.044421, 0.062557, 0.048613, 0.014889, 0.046549, 0.919689, -15.777763, 16.438353, 55.043964, 0.049059, 0.002563, -2.413339

149391476.350130, -0.078470, 0.072901, 0.051476, 0.014889, 0.046549, 0.919689, -15.774702, 16.466471, 55.040298, 0.048275, 0.002912, -2.413609

149391476.351173, -0.028073, 0.072901, 0.039259, -0.000000, 0.062065, 0.966453, -15.772253, 16.488966, 55.037369, 0.048305, 0.003572, -2.413999

149391476.352177, 0.019760, 0.033094, -0.040803, -0.000000, 0.062065, 0.966453, -15.770294, 16.506962, 55.035023, 0.048813, 0.003839, -2.415188

149391476.353227, 0.028015, -0.019629, -0.155060, 0.029778, 0.062065, 0.982041, -15.809799, 16.419317, 55.079796, 0.049351, 0.003022, -2.418599

149391476.354236, 0.026528, -0.018319, -0.136547, 0.029778, 0.062065, 0.982041, -15.841404, 16.349201, 55.115612, 0.049856, 0.002230, -2.421768

149391476.355299, 0.011020, 0.014359, -0.003307, 0.029778, 0.046549, 0.997629, -15.866688, 16.293108, 55.144264, 0.049888, 0.001743, -2.422918

149391476.356308, 0.002117, 0.048741, 0.032045, 0.029778, 0.046549, 0.997629, -15.886914, 16.248234, 55.167187, 0.049827, 0.001579, -2.423722

149391476.357360, -0.014971, 0.075821, 0.013729, 0.029778, 0.046549, 0.997629, -15.882560, 16.191927, 55.115555, 0.049590, 0.001727, -2.424705

149391476.358361, -0.058310, 0.091268, 0.011347, 0.029778, 0.046549, 0.997629, -15.879076, 16.146881, 55.074249, 0.048940, 0.001987, -2.425720

149391476.359424, -0.118677, 0.105194, 0.008716, -0.000000, 0.046549, 0.997629, -15.876289, 16.110844, 55.041203, 0.047658, 0.003037, -2.425780

149391476.360430, -0.169379, 0.113746, 0.000164, -0.000000, 0.046549, 0.997629, -15.956205, 16.102423, 55.061417, 0.045967, 0.004097, -2.425984

149391476.361480, -0.173655, 0.110997, 0.008105, -0.015630, 0.000000, 0.982041, -16.020138, 16.095686, 55.077587, 0.043251, 0.005427, -2.423839

149391476.362487, -0.142790, 0.099092, 0.040825, -0.015630, 0.000000, 0.982041, -16.071283, 16.090296, 55.090523, 0.040972, 0.006557, -2.421465

149391476.363497, -0.105996, 0.069498, 0.084218, -0.046891, 0.015516, 0.966453, -16.132736, 16.024759, 55.147518, 0.039381, 0.008019, -2.418096

149391476.364547, -0.080443, 0.040526, 0.114438, -0.046891, 0.015516, 0.966453, -16.181898, 15.972330, 55.193115, 0.038051, 0.009172, -2.414532

149391476.365600, -0.020578, 0.003263, 0.110773, 0.014889, 0.046549, 0.966453, -16.221228, 15.930387, 55.229591, 0.038034, 0.008665, -2.414728

149391476.366599, 0.025304, -0.024313, 0.076149, 0.014889, 0.046549, 0.966453, -16.252691, 15.896833, 55.258774, 0.038474, 0.007911, -2.415371

149391476.367637, 0.063940, -0.042639, 0.034180, -0.000000, 0.062065, 0.966453, -16.277863, 15.869989, 55.282120, 0.039634, 0.007286, -2.416625

149391476.368688, 0.079039, -0.057289, -0.005111, -0.000000, 0.062065, 0.966453, -16.298000, 15.848515, 55.300797, 0.040932, 0.006534, -2.418291

149391476.369700, 0.086046, -0.064455, -0.024737, 0.014889, 0.046549, 0.982041, -16.314110, 15.831335, 55.315739, 0.041899, 0.005469, -2.419918

149391476.370713, 0.057325, -0.042766, -0.022721, 0.014889, 0.046549, 0.982041, -16.285925, 15.858408, 55.281044, 0.042563, 0.004639, -2.421447

149391476.371769, 0.033196, -0.000616, -0.005923, 0.014889, -0.046450, 1.137920, -16.263376, 15.880066, 55.253288, 0.041258, 0.004201, -2.419567

149391476.372771, 0.087513, 0.065177, 0.004069, 0.059555, -0.046450, 1.137920, -16.245338, 15.897392, 55.231083, 0.040498, 0.003679, -2.418782

149391476.373826, 0.098229, 0.125100, -0.010668, 0.059555, -0.046450, 1.137920, -16.271980, 15.931662, 55.283291, 0.039909, 0.003828, -2.418131

149391476.374839, 0.062188, 0.173053, -0.024412, -0.000000, 0.046549, 0.966453, -16.293293, 15.959077, 55.325058, 0.040687, 0.005474, -2.419096

149391476.375877, 0.051609, 0.158945, -0.031971, -0.000000, 0.046549, 0.966453, -16.310345, 15.981009, 55.358471, 0.041357, 0.006992, -2.420124

149391476.376928, 0.028702, 0.111603, -0.023419, -0.000000, 0.000000, 0.950865, -16.365059, 15.916923, 55.198608, 0.040828, 0.007990, -2.419319

149391476.377939, 0.044244, 0.066795, 0.004881, -0.000000, 0.000000, 0.950865, -16.408829, 15.865653, 55.070721, 0.040455, 0.008471, -2.418321

149391476.379002, 0.067762, 0.057021, 0.024734, -0.015630, 0.046549, 0.997629, -16.443846, 15.824637, 54.968410, 0.041287, 0.009196, -2.418408

149391476.380015, 0.080987, 0.055821, 0.020327, -0.015630, 0.046549, 0.997629, -16.471859, 15.791825, 54.886562, 0.042201, 0.009869, -2.418590

149391476.381027, 0.000047, 0.050323, 0.009942, -0.000000, 0.000000, 0.982041, -16.535341, 15.806392, 54.914379, 0.041363, 0.010150, -2.417677

149391476.382079, -0.023276, 0.042985, 0.022590, -0.000000, 0.000000, 0.982041, -16.586128, 15.818045, 54.936630, 0.040302, 0.010366, -2.416675

149391476.383090, 0.048501, 0.022826, 0.034807, -0.015630, 0.046549, 0.997629, -16.626757, 15.827367, 54.954433, 0.040914, 0.010682, -2.416835

149391476.384152, 0.071101, 0.005302, 0.029888, -0.015630, 0.046549, 0.997629, -16.700333, 15.916457, 54.992001, 0.041773, 0.010822, -2.417014

149391476.385161, 0.068352, 0.006219, 0.040273, -0.000000, 0.031033, 0.950865, -16.759193, 15.987730, 55.022053, 0.042268, 0.010652, -2.417058

149391476.386209, 0.058840, 0.027018, 0.049292, -0.000000, 0.031033, 0.950865, -16.806282, 16.044748, 55.046097, 0.042683, 0.010697, -2.416973

149391476.387209, 0.049677, 0.036792, 0.053874, -0.000000, 0.077582, 0.919689, -16.802881, 15.988321, 55.042007, 0.043989, 0.010768, -2.419073

149391476.388265, 0.047435, 0.039605, 0.085032, -0.000000, 0.077582, 0.919689, -16.800159, 15.943180, 55.038734, 0.045278, 0.010872, -2.420812

149391476.389278, 0.031247, 0.045714, 0.183686, -0.015630, 0.031033, 0.966453, -16.797983, 15.907067, 55.036118, 0.045345, 0.011347, -2.418851

149391476.390341, 0.014448, 0.053961, 0.324491, -0.015630, 0.031033, 0.966453, -16.775705, 15.959810, 54.964050, 0.045270, 0.011851, -2.415319

149391476.391354, -0.017622, 0.054266, 0.389243, 0.014889, 0.077582, 0.950865, -16.757883, 16.002005, 54.906399, 0.045822, 0.011612, -2.414403

149391476.392360, -0.033505, 0.030748, 0.333043, 0.014889, 0.077582, 0.950865, -16.743626, 16.035759, 54.860275, 0.046200, 0.011169, -2.414059

149391476.393416, -0.038697, -0.002545, 0.209648, -0.000000, 0.077582, 0.966453, -16.732220, 16.062763, 54.823376, 0.046487, 0.010778, -2.414295

149391476.394429, -0.044460, -0.025514, 0.091614, -0.000000, 0.077582, 0.966453, -16.764168, 16.063959, 54.863831, 0.046715, 0.010227, -2.415817

149391476.395485, -0.043544, -0.023071, 0.031749, -0.015630, 0.031033, 0.997629, -16.789726, 16.064915, 54.896194, 0.045954, 0.010081, -2.415343

149391476.396491, -0.006149, -0.016605, 0.022110, -0.015630, 0.031033, 0.997629, -16.810173, 16.065680, 54.922085, 0.045598, 0.010018, -2.414998

149391476.397554, 0.037635, -0.025823, 0.021944, 0.014889, 0.031033, 0.982041, -16.847067, 16.045883, 54.942795, 0.045701, 0.009242, -2.415716

149391476.398555, 0.066444, -0.045612, 0.017296, 0.014889, 0.031033, 0.982041, -16.876581, 16.030046, 54.959366, 0.046061, 0.008306, -2.416515

149391476.399606, 0.071324, -0.056313, 0.013344, -0.000000, 0.046549, 0.997629, -16.900192, 16.017376, 54.972622, 0.046803, 0.007555, -2.417471

149391476.400600, 0.080586, -0.059612, 0.017847, -0.000000, 0.046549, 0.997629, -16.857473, 16.088873, 54.843281, 0.047582, 0.006816, -2.418291

149391476.401637, 0.085169, -0.062244, 0.026441, -0.000000, 0.046549, 0.997629, -16.823298, 16.146070, 54.739807, 0.048428, 0.006035, -2.418938

149391476.402705, 0.084273, -0.057944, 0.038144, -0.000000, 0.015516, 0.997629, -16.795958, 16.191828, 54.657028, 0.048655, 0.005284, -2.418222

149391476.403717, 0.086685, -0.051940, 0.043919, -0.000000, 0.015516, 0.997629, -16.753548, 16.269251, 54.754074, 0.048857, 0.004636, -2.417404

149391476.404730, 0.102800, -0.046361, 0.036117, -0.000000, 0.062065, 0.997629, -16.719620, 16.331190, 54.831711, 0.050141, 0.004058, -2.418413

149391476.405793, 0.099739, -0.048973, 0.022798, -0.000000, 0.062065, 0.997629, -16.692478, 16.380741, 54.893822, 0.051418, 0.003448, -2.419476

149391476.406805, 0.097938, -0.056315, 0.005275, -0.000000, 0.031033, 0.982041, -16.670765, 16.420382, 54.943512, 0.051994, 0.002818, -2.419458

149391476.407815, 0.082720, -0.061707, -0.001414, -0.000000, 0.031033, 0.982041, -16.694468, 16.452093, 54.866642, 0.052404, 0.002153, -2.419500

149391476.408880, 0.084567, -0.063697, -0.001683, -0.000000, 0.015516, 0.966453, -16.713428, 16.477463, 54.805145, 0.052560, 0.001436, -2.418979

149391476.409893, 0.084580, -0.059964, 0.002538, -0.000000, 0.015516, 0.966453, -16.728598, 16.497759, 54.755947, 0.052670, 0.000802, -2.418417

149391476.410906, 0.088481, -0.060197, 0.011156, -0.000000, 0.015516, 0.966453, -16.699661, 16.513996, 54.716591, 0.052816, 0.000172, -2.417754

149391476.411956, 0.091103, -0.055341, 0.020788, -0.000000, 0.015516, 0.966453, -16.676512, 16.526985, 54.685104, 0.053019, -0.000422, -2.416976

149391476.412969, 0.078580, -0.038542, 0.024454, -0.000000, 0.062065, 0.982041, -16.657991, 16.537376, 54.659916, 0.054001, -0.000814, -2.417951

149391476.414020, 0.061378, -0.016203, 0.033208, -0.000000, 0.062065, 0.982041, -16.622639, 16.586506, 54.709736, 0.054815, -0.000988, -2.418740

149391476.415025, 0.032577, -0.001211, 0.039386, -0.000000, 0.062065, 0.966453, -16.594357, 16.625809, 54.749592, 0.055323, -0.001006, -2.419458

149391476.416081, 0.013951, 0.010476, 0.044836, -0.000000, 0.062065, 0.966453, -16.571732, 16.657251, 54.781479, 0.055643, -0.000908, -2.420044

149391476.417094, 0.016648, 0.004873, 0.043294, -0.000000, 0.062065, 0.982041, -16.553631, 16.682405, 54.806988, 0.055958, -0.000869, -2.420585

149391476.418157, 0.013606, -0.003003, 0.040887, -0.000000, 0.062065, 0.982041, -16.518614, 16.661713, 54.827396, 0.056243, -0.000910, -2.421120

149391476.419169, 0.019300, -0.005631, 0.043315, -0.000000, 0.046549, 0.982041, -16.490601, 16.645159, 54.843723, 0.056257, -0.000970, -2.421005

149391476.420177, 0.016501, 0.002860, 0.053766, -0.000000, 0.046549, 0.982041, -16.468189, 16.631916, 54.856785, 0.056241, -0.000951, -2.420782

149391476.421232, 0.010174, 0.003098, 0.066089, -0.000000, 0.077582, 0.982041, -16.470797, 16.641729, 54.820583, 0.056798, -0.000957, -2.421707

149391476.422244, -0.010671, -0.008628, 0.030611, -0.000000, 0.077582, 0.982041, -16.472883, 16.649580, 54.791622, 0.057134, -0.001057, -2.422992

149391476.423307, -0.012198, -0.018096, 0.010758, -0.000000, 0.046549, 0.935277, -16.474552, 16.655861, 54.768456, 0.056859, -0.001230, -2.423237

149391476.424317, 0.008091, -0.019509, 0.006944, -0.000000, 0.046549, 0.935277, -16.496424, 16.722111, 54.796570, 0.056796, -0.001401, -2.423488

149391476.425361, 0.009117, -0.027172, -0.006957, -0.000000, 0.031033, 0.966453, -16.513922, 16.775110, 54.819061, 0.056395, -0.001651, -2.423184

149391476.426370, 0.009523, -0.030786, -0.004119, -0.000000, 0.031033, 0.966453, -16.527920, 16.817509, 54.837055, 0.056003, -0.001924, -2.422838

149391476.427432, 0.001582, -0.018874, -0.003203, 0.029778, 0.062065, 0.997629, -16.539118, 16.871836, 54.851448, 0.056120, -0.002680, -2.424535

149391476.428436, -0.013401, -0.008609, -0.006724, 0.029778, 0.062065, 0.997629, -16.548077, 16.915298, 54.862965, 0.056087, -0.003308, -2.426199

149391476.429493, -0.022089, 0.002934, -0.008974, 0.029778, 0.062065, 0.982041, -16.555244, 16.950068, 54.872177, 0.055978, -0.003816, -2.427883

149391476.430508, -0.038668, 0.008852, -0.000712, -0.000000, 0.077582, 0.982041, -16.560978, 16.977884, 54.879547, 0.056053, -0.003666, -2.429149

149391476.431521, -0.046226, 0.013749, 0.004984, -0.000000, 0.077582, 0.982041, -16.565565, 16.979729, 54.815472, 0.056052, -0.003474, -2.430329

149391476.432583, -0.046448, 0.019738, 0.005776, -0.000000, 0.062065, 0.982041, -16.569235, 16.981205, 54.764210, 0.055710, -0.003204, -2.430815

149391476.433596, -0.051152, 0.005569, -0.003615, -0.000000, 0.062065, 0.982041, -16.572170, 16.982386, 54.723202, 0.055351, -0.003085, -2.431393

149391476.434609, -0.064427, -0.016077, -0.005930, -0.015630, 0.046549, 0.997629, -16.533445, 16.942513, 54.760365, 0.054532, -0.002869, -2.430815

149391476.436065, -0.053801, -0.037565, -0.004012, -0.031260, 0.077582, 0.982041, -16.502466, 16.910614, 54.790096, 0.054252, -0.002711, -2.431010

149391476.436851, -0.042503, -0.046044, -0.002432, -0.031260, 0.077582, 0.982041, -16.477682, 16.885096, 54.813881, 0.054418, -0.002377, -2.431158

149391476.437709, -0.041907, -0.045971, -0.003278, -0.031260, 0.077582, 0.982041, -16.478392, 16.885090, 54.832909, 0.054556, -0.002081, -2.431315

149391476.438757, -0.017472, -0.042001, 0.001914, -0.000000, 0.015516, 0.982041, -16.478960, 16.885084, 54.848133, 0.053600, -0.002494, -2.430100

149391476.439757, 0.029839, -0.029754, 0.004864, -0.000000, 0.015516, 0.982041, -16.479414, 16.885080, 54.860310, 0.053135, -0.002760, -2.428874

149391476.440813, 0.064353, -0.019064, 0.015860, 0.014889, 0.062065, 0.982041, -16.438705, 16.762629, 54.800079, 0.053993, -0.003218, -2.429874

149391476.441835, 0.074659, -0.009693, 0.027187, 0.014889, 0.062065, 0.982041, -16.406137, 16.664667, 54.751896, 0.054915, -0.003573, -2.430792

149391476.442880, 0.056642, -0.000220, 0.028409, -0.000000, 0.093098, 0.997629, -16.380083, 16.586298, 54.713348, 0.056260, -0.003557, -2.432533

149391476.443885, 0.037510, 0.003373, 0.025119, -0.000000, 0.093098, 0.997629, -16.359240, 16.523602, 54.682510, 0.057368, -0.003503, -2.434318

149391476.444947, 0.029544, -0.002379, 0.018312, -0.015630, 0.077582, 0.966453, -16.363102, 16.636711, 54.634518, 0.058137, -0.003155, -2.434909

149391476.445960, 0.026829, -0.014887, 0.011946, -0.015630, 0.077582, 0.966453, -16.366192, 16.727198, 54.596123, 0.058848, -0.002932, -2.435495

149391476.446973, 0.015201, -0.022946, 0.009901, -0.000000, 0.077582, 0.966453, -16.368664, 16.799587, 54.565407, 0.059426, -0.003118, -2.436583

149391476.448020, 0.002622, -0.028742, 0.000722, -0.000000, 0.077582, 0.966453, -16.411713, 16.837091, 54.657455, 0.059868, -0.003363, -2.437745

149391476.449036, 0.002268, -0.027838, 0.000408, -0.000000, 0.046549, 0.982041, -16.446152, 16.867094, 54.731094, 0.059640, -0.003573, -2.437550

149391476.450098, -0.015122, -0.024261, 0.000698, -0.000000, 0.046549, 0.982041, -16.473703, 16.891096, 54.790005, 0.059237, -0.003756, -2.437356

149391476.451111, -0.021681, -0.021957, -0.002605, -0.015630, 0.046549, 0.950865, -16.454672, 16.869482, 54.813808, 0.058809, -0.003572, -2.436692

149391476.452169, -0.031391, -0.015813, -0.009428, -0.015630, 0.046549, 0.950865, -16.439447, 16.852190, 54.832851, 0.058279, -0.003333, -2.436112

149391476.453164, -0.035514, -0.016976, -0.019395, -0.000000, 0.046549, 0.935277, -16.427267, 16.838356, 54.848087, 0.057762, -0.003421, -2.436240

149391476.454224, -0.029085, -0.022299, -0.047990, -0.000000, 0.046549, 0.935277, -16.417522, 16.827290, 54.860275, 0.057302, -0.003556, -2.436680

149391476.455230, -0.022493, -0.010767, -0.044289, 0.014889, 0.062065, 0.935277, -16.348118, 16.777620, 54.823376, 0.057254, -0.003888, -2.438212

149391476.456286, -0.021720, -0.002766, -0.011363, 0.014889, 0.062065, 0.935277, -16.292595, 16.737885, 54.793858, 0.057204, -0.004155, -2.439386

149391476.457292, -0.023356, 0.004468, 0.002630, 0.014889, 0.062065, 0.935277, -16.248177, 16.706097, 54.770245, 0.057149, -0.004351, -2.440387

149391476.458349, -0.033741, 0.012104, 0.001408, -0.000000, 0.062065, 0.982041, -16.315323, 16.823523, 54.798000, 0.056919, -0.004141, -2.440686

149391476.459362, -0.042598, 0.001683, -0.000415, -0.000000, 0.062065, 0.982041, -16.369041, 16.917463, 54.820206, 0.056621, -0.004042, -2.440968

149391476.460412, -0.036917, -0.015096, -0.009975, -0.000000, 0.046549, 0.950865, -16.412016, 16.992617, 54.837971, 0.056087, -0.004112, -2.440763

149391476.461425, -0.023881, -0.027038, -0.000795, -0.000000, 0.046549, 0.950865, -16.405323, 16.930290, 54.805534, 0.055706, -0.004298, -2.440512

149391476.462468, -0.014408, -0.028262, 0.005800, 0.014889, 0.046549, 0.982041, -16.399967, 16.880428, 54.779583, 0.055390, -0.004806, -2.440664

149391476.463475, -0.009919, -0.014212, 0.011359, 0.014889, 0.046549, 0.982041, -16.395683, 16.840540, 54.758823, 0.055130, -0.005158, -2.440776

149391476.464538, -0.028248, 0.005821, 0.010821, -0.015630, 0.046549, 1.013217, -16.310110, 16.788221, 54.672241, 0.054642, -0.004696, -2.439769

149391476.465550, -0.037521, 0.022443, 0.015975, -0.015630, 0.046549, 1.013217, -16.241652, 16.746367, 54.602978, 0.054086, -0.004084, -2.438712

149391476.466563, -0.046299, 0.032734, 0.018330, -0.015630, 0.031033, 0.982041, -16.186886, 16.712881, 54.547565, 0.053162, -0.003385, -2.437074

149391476.467613, -0.057583, 0.035334, 0.021831, -0.015630, 0.031033, 0.982041, -16.143072, 16.686094, 54.503235, 0.052124, -0.002663, -2.435414

149391476.468626, -0.058165, 0.036683, 0.026455, -0.000000, 0.046549, 0.997629, -16.190166, 16.746296, 54.514420, 0.051436, -0.002260, -2.434866

149391476.469689, -0.036309, 0.031725, 0.023805, -0.000000, 0.046549, 0.997629, -16.227842, 16.794458, 54.523369, 0.050961, -0.001899, -2.434335

149391476.470701, -0.004449, 0.022685, 0.016127, -0.000000, 0.031033, 0.982041, -16.257984, 16.832989, 54.530529, 0.050529, -0.001652, -2.433337

149391476.471714, 0.020761, 0.010546, 0.018180, -0.000000, 0.031033, 0.982041, -16.302633, 16.802588, 54.559582, 0.050355, -0.001530, -2.432393

149391476.472757, 0.023015, 0.007932, 0.025571, -0.000000, 0.031033, 0.982041, -16.338352, 16.778267, 54.582821, 0.050215, -0.001438, -2.431427

149391476.473814, 0.010870, 0.007167, 0.029518, -0.000000, 0.031033, 0.982041, -16.366928, 16.758810, 54.601414, 0.049954, -0.001357, -2.430467

149391476.474827, -0.004097, 0.013276, 0.036237, 0.044666, 0.062065, 1.013217, -16.328180, 16.702429, 54.569641, 0.050098, -0.002105, -2.431956

149391476.475839, -0.008196, 0.010903, 0.034279, 0.044666, 0.062065, 1.013217, -16.297182, 16.657324, 54.544220, 0.050199, -0.002861, -2.433450

149391476.476902, -0.004226, 0.000213, 0.018701, -0.015630, 0.046549, 0.966453, -16.272383, 16.621239, 54.523884, 0.050108, -0.002489, -2.432662

149391476.477899, 0.009318, -0.015339, 0.002760, -0.015630, 0.046549, 0.966453, -16.293615, 16.551556, 54.600910, 0.050154, -0.002268, -2.432130

149391476.478965, 0.017793, -0.032060, -0.002083, -0.000000, 0.062065, 0.997629, -16.310602, 16.495808, 54.662533, 0.050581, -0.002560, -2.432847

149391476.479977, 0.020110, -0.043943, -0.003833, -0.000000, 0.062065, 0.997629, -16.324192, 16.451210, 54.711830, 0.051012, -0.002946, -2.433616

149391476.480990, 0.014304, -0.035842, -0.005845, -0.000000, 0.046549, 0.966453, -16.335064, 16.415531, 54.751270, 0.051097, -0.003239, -2.433848

149391476.482053, 0.004136, -0.015652, -0.003629, -0.000000, 0.046549, 0.966453, -16.343761, 16.529846, 54.782822, 0.051081, -0.003335, -2.433971

149391476.483050, -0.009406, -0.008445, 0.001530, -0.031260, 0.062065, 0.982041, -16.350719, 16.621298, 54.808064, 0.051221, -0.002714, -2.433449

149391476.484115, -0.022364, -0.009762, -0.004482, -0.031260, 0.062065, 0.982041, -16.356285, 16.694460, 54.828255, 0.051216, -0.002120, -2.432948

149391476.485128, -0.027276, -0.014939, -0.045351, -0.000000, 0.046549, 0.966453, -16.319666, 16.732580, 54.797760, 0.050885, -0.002203, -2.433343

149391476.486138, -0.026402, -0.034060, -0.106589, -0.000000, 0.046549, 0.966453, -16.290369, 16.763077, 54.773365, 0.050571, -0.002442, -2.434304

149391476.487186, -0.021660, -0.047396, -0.101654, -0.000000, 0.046549, 0.966453, -16.266932, 16.787474, 54.753849, 0.050302, -0.002828, -2.435211

149391476.488234, -0.031071, -0.039521, -0.061540, -0.000000, 0.046549, 0.997629, -16.289255, 16.745768, 54.761559, 0.049911, -0.003145, -2.435668

149391476.489241, -0.050451, -0.020450, -0.021673, -0.000000, 0.046549, 0.997629, -16.307114, 16.712402, 54.767727, 0.049348, -0.003273, -2.435722

149391476.490303, -0.051061, -0.000902, -0.003347, -0.000000, 0.031033, 0.950865, -16.321400, 16.685711, 54.772663, 0.048481, -0.003221, -2.435083

149391476.491307, -0.040418, 0.005097, -0.001782, -0.000000, 0.031033, 0.950865, -16.332829, 16.664358, 54.776611, 0.047765, -0.003110, -2.434458

149391476.492315, -0.032783, 0.004792, -0.001782, -0.015630, 0.031033, 0.997629, -16.341972, 16.647276, 54.779770, 0.047097, -0.002697, -2.433259

149391476.493366, -0.026112, 0.004392, 0.000050, -0.015630, 0.031033, 0.997629, -16.349287, 16.633610, 54.782295, 0.046498, -0.002294, -2.432080

149391476.494379, -0.011808, 0.009980, -0.001147, -0.015630, 0.031033, 0.997629, -16.355139, 16.622677, 54.784317, 0.046063, -0.001844, -2.430946

149391476.495441, -0.006178, 0.015152, 0.009641, -0.015630, 0.031033, 0.997629, -16.339285, 16.573114, 54.762611, 0.045690, -0.001349, -2.429743

149391476.496454, -0.000367, 0.022308, 0.022893, -0.000000, 0.031033, 0.966453, -16.326601, 16.533464, 54.745247, 0.045414, -0.001114, -2.429036

149391476.497502, -0.000957, 0.022736, 0.027195, -0.000000, 0.031033, 0.966453, -16.316454, 16.501743, 54.731354, 0.045137, -0.000874, -2.428306

149391476.498517, -0.002432, 0.028237, 0.033500, -0.000000, 0.062065, 0.997629, -16.308336, 16.517183, 54.720242, 0.045453, -0.000597, -2.428701

149391476.499579, 0.000908, 0.025849, 0.037279, -0.000000, 0.062065, 0.997629, -16.301842, 16.529535, 54.711349, 0.045796, -0.000340, -2.429020

149391476.500593, 0.011055, 0.021716, 0.033206, -0.000000, 0.031033, 0.997629, -16.296646, 16.539417, 54.704235, 0.045611, -0.000137, -2.428166

149391476.501605, 0.025175, 0.018867, 0.034899, -0.000000, 0.031033, 0.997629, -16.292490, 16.526915, 54.838490, 0.045571, 0.000034, -2.427322

149391476.502652, 0.050957, 0.002025, 0.037752, -0.000000, 0.031033, 0.966453, -16.289165, 16.516912, 54.945892, 0.045824, 0.000033, -2.426506

149391476.503655, 0.062741, -0.018350, 0.039050, -0.000000, 0.031033, 0.966453, -16.286507, 16.508911, 55.031815, 0.046167, -0.000168, -2.425724

149391476.504718, 0.060523, -0.023346, 0.032846, -0.000000, 0.046549, 0.982041, -16.284378, 16.502510, 55.100552, 0.046821, -0.000424, -2.425597

149391476.505731, 0.050877, -0.024349, 0.030360, -0.000000, 0.046549, 0.982041, -16.241604, 16.497389, 54.968948, 0.047337, -0.000671, -2.425487

149391476.506793, 0.054291, -0.023239, 0.027628, -0.000000, 0.046549, 0.966453, -16.207384, 16.493292, 54.863667, 0.047918, -0.000913, -2.425400

149391476.507790, 0.029527, -0.019460, 0.023758, -0.000000, 0.046549, 0.966453, -16.180008, 16.490013, 54.779442, 0.048210, -0.001096, -2.425352

149391476.508843, 0.008274, -0.009184, 0.014586, -0.000000, 0.031033, 0.966453, -16.199181, 16.569023, 54.782032, 0.047973, -0.001180, -2.424723

149391476.509856, -0.004458, -0.005402, 0.003515, -0.000000, 0.031033, 0.966453, -16.214518, 16.632231, 54.784107, 0.047611, -0.001215, -2.424188

149391476.510868, -0.006158, -0.001999, -0.002240, 0.014889, 0.046549, 0.966453, -16.226788, 16.682798, 54.785767, 0.047556, -0.001517, -2.424806

149391476.511931, -0.004235, -0.000761, -0.006080, 0.014889, 0.046549, 0.966453, -16.174994, 16.723251, 54.810417, 0.047520, -0.001800, -2.425396

149391476.512929, -0.009229, 0.007328, -0.002364, 0.014889, 0.062065, 0.982041, -16.133558, 16.755613, 54.830139, 0.047735, -0.002002, -2.426472

149391476.513994, -0.011725, 0.011360, -0.001417, 0.014889, 0.062065, 0.982041, -16.100410, 16.781504, 54.845917, 0.047913, -0.002153, -2.427479

149391476.515032, -0.019851, 0.015306, 0.000407, 0.014889, 0.062065, 0.966453, -16.135502, 16.740992, 54.858540, 0.048028, -0.002270, -2.428545

149391476.516044, -0.020156, 0.013779, 0.006210, -0.000000, 0.015516, 0.966453, -16.163574, 16.708582, 54.868637, 0.047188, -0.002111, -2.427241

149391476.517057, -0.003286, 0.016778, 0.011760, -0.000000, 0.015516, 0.966453, -16.186033, 16.682653, 54.876713, 0.046531, -0.001925, -2.425937

149391476.518095, -0.002918, 0.032870, 0.020782, -0.000000, 0.015516, 1.013217, -16.204000, 16.661911, 54.883175, 0.045876, -0.001580, -2.424555

149391476.519157, 0.005515, 0.062078, 0.024530, -0.000000, 0.015516, 1.013217, -16.218374, 16.645317, 54.841698, 0.045322, -0.000932, -2.423162

149391476.520170, 0.023937, 0.066751, 0.039263, -0.015630, 0.015516, 0.982041, -16.229874, 16.632042, 54.808514, 0.044956, 0.000026, -2.421133

149391476.521176, 0.027619, 0.054582, 0.050098, -0.015630, 0.015516, 0.982041, -16.239073, 16.621422, 54.781967, 0.044634, 0.000837, -2.419060

149391476.522231, 0.048694, 0.024955, 0.041546, -0.015630, 0.062065, 0.966453, -16.246431, 16.674150, 54.760731, 0.045530, 0.001379, -2.418917

149391476.523241, 0.076672, -0.002181, 0.027216, -0.015630, 0.062065, 0.966453, -16.252319, 16.716333, 54.743740, 0.046663, 0.001637, -2.418921

149391476.524295, 0.065191, -0.011704, 0.013188, -0.000000, 0.062065, 0.982041, -16.257029, 16.750080, 54.730148, 0.047665, 0.001471, -2.419556

149391476.525308, 0.048868, -0.006972, 0.003940, -0.000000, 0.062065, 0.982041, -16.219723, 16.817894, 54.742599, 0.048459, 0.001366, -2.420201

149391476.526323, 0.007474, 0.006630, 0.005352, -0.000000, 0.046549, 0.966453, -16.189878, 16.872145, 54.752560, 0.048527, 0.001404, -2.420158

149391476.527369, -0.028563, 0.015759, 0.021685, -0.000000, 0.046549, 0.966453, -16.166004, 16.915545, 54.760529, 0.048227, 0.001527, -2.419899

149391476.528434, -0.036334, 0.012437, 0.021826, -0.000000, 0.031033, 0.966453, -16.146904, 16.807407, 54.673607, 0.047526, 0.001611, -2.419099

149391476.529446, -0.010154, -0.008157, 0.003127, -0.000000, 0.031033, 0.966453, -16.172697, 16.720898, 54.604069, 0.047117, 0.001493, -2.418593

149391476.530450, 0.046870, -0.033699, -0.003816, -0.015630, 0.031033, 0.982041, -16.193331, 16.651690, 54.548439, 0.047261, 0.001444, -2.417657

149391476.531509, 0.114953, -0.049734, 0.021381, -0.015630, 0.031033, 0.982041, -16.209839, 16.596323, 54.503937, 0.048133, 0.001200, -2.416538

149391476.532504, 0.148856, -0.051261, 0.162491, -0.000000, 0.077582, 0.966453, -16.202509, 16.674480, 54.561630, 0.050226, 0.000575, -2.416527

149391476.533559, 0.132668, -0.041182, 0.253815, -0.000000, 0.077582, 0.966453, -16.196644, 16.737005, 54.607784, 0.052195, -0.000017, -2.415431

149391476.534571, 0.079218, -0.031102, 0.182955, 0.014889, 0.093098, 0.982041, -16.191952, 16.787025, 54.644707, 0.053807, -0.000775, -2.416230

149391476.535634, 0.010573, 0.001845, 0.134253, 0.014889, 0.093098, 0.982041, -16.106052, 16.867857, 54.604275, 0.054712, -0.001167, -2.417299

149391476.536647, -0.016261, 0.011673, 0.032756, -0.000000, 0.077582, 0.982041, -16.037333, 16.932524, 54.571930, 0.055033, -0.001060, -2.418149

149391476.537692, -0.047014, 0.012623, -0.032220, -0.000000, 0.077582, 0.982041, -15.982358, 16.984257, 54.546051, 0.055028, -0.000904, -2.419561

149391476.538709, -0.060454, 0.014761, -0.043215, -0.015630, 0.015516, 0.966453, -15.999987, 16.984827, 54.502026, 0.053631, -0.000429, -2.418072

149391476.539766, -0.062470, 0.012357, -0.037222, -0.015630, 0.015516, 0.966453, -16.014090, 16.985283, 54.466805, 0.052218, 0.000017, -2.416578

149391476.540772, -0.054876, -0.000162, -0.027469, -0.000000, 0.046549, 0.997629, -16.025372, 16.985647, 54.438629, 0.051565, 0.000029, -2.416687

149391476.541783, -0.041162, -0.014212, -0.023003, -0.000000, 0.046549, 0.997629, -16.034397, 16.985939, 54.416088, 0.051059, -0.000101, -2.416764

149391476.542825, -0.034914, -0.017500, -0.009064, -0.000000, 0.046549, 0.982041, -16.062155, 16.965765, 54.421379, 0.050629, -0.000273, -2.416765

149391476.543885, -0.027003, -0.014740, -0.005285, 0.014889, 0.015516, 0.982041, -16.084360, 16.949625, 54.425613, 0.049657, -0.000733, -2.416121

149391476.544898, -0.004906, -0.018915, -0.017134, 0.014889, 0.015516, 0.982041, -16.102125, 16.936712, 54.429001, 0.048936, -0.001211, -2.415624

149391476.545908, 0.011893, -0.026550, -0.043096, -0.000000, 0.062065, 0.997629, -16.095800, 16.967199, 54.525005, 0.049319, -0.001432, -2.416589

149391476.546961, 0.019417, -0.022702, -0.103783, -0.000000, 0.062065, 0.997629, -16.090740, 16.991589, 54.601810, 0.049777, -0.001587, -2.418158

149391476.548000, 0.020503, -0.008769, -0.146149, -0.000000, 0.062065, 0.997629, -16.086693, 17.011101, 54.663254, 0.050236, -0.001573, -2.420094

149391476.549013, 0.006317, 0.002179, -0.126029, -0.000000, 0.062065, 0.997629, -16.042383, 16.985893, 54.642437, 0.050539, -0.001459, -2.421736

149391476.550073, -0.013849, 0.006020, -0.112313, -0.000000, 0.062065, 0.982041, -16.006935, 16.965727, 54.625782, 0.050648, -0.001311, -2.423294

149391476.551086, -0.013259, -0.015335, -0.122208, -0.000000, 0.062065, 0.982041, -15.978577, 16.949594, 54.612457, 0.050768, -0.001378, -2.424870

149391476.552089, 0.006456, -0.038933, -0.125615, 0.014889, 0.062065, 0.982041, -16.017498, 16.977505, 54.601799, 0.051075, -0.001977, -2.426950

149391476.553136, 0.002732, -0.048877, -0.127455, 0.014889, 0.062065, 0.982041, -16.048635, 16.999834, 54.593273, 0.051342, -0.002679, -2.429069

149391476.554149, 0.000282, -0.049642, -0.123576, -0.000000, 0.062065, 0.982041, -16.073545, 17.017696, 54.586452, 0.051584, -0.003055, -2.430569

149391476.555206, -0.014674, -0.045308, -0.112602, -0.000000, 0.062065, 0.982041, -16.093473, 17.031986, 54.580994, 0.051667, -0.003404, -2.431978

149391476.556212, -0.038584, -0.038075, -0.102757, -0.000000, 0.077582, 0.950865, -16.088879, 17.023010, 54.623276, 0.051887, -0.003673, -2.433973

149391476.557267, -0.039267, -0.046543, -0.095809, -0.000000, 0.077582, 0.950865, -16.085203, 17.015829, 54.657101, 0.052077, -0.004042, -2.435917

149391476.558316, -0.026181, -0.051842, -0.067181, -0.000000, 0.062065, 0.982041, -16.082264, 17.010084, 54.684162, 0.052031, -0.004458, -2.436762

149391476.559327, -0.024434, -0.037893, -0.012544, -0.000000, 0.062065, 0.982041, -16.120985, 16.985081, 54.635838, 0.052012, -0.004738, -2.437056

149391476.560338, -0.011959, -0.029322, 0.020909, -0.000000, 0.031033, 0.950865, -16.151962, 16.965078, 54.597179, 0.051502, -0.004954, -2.435870

149391476.561394, 0.004140, -0.033488, 0.036316, -0.000000, 0.031033, 0.950865, -16.176743, 16.949076, 54.566254, 0.051164, -0.005229, -2.434566

149391476.562390, 0.011775, -0.038986, 0.028069, 0.014889, 0.062065, 1.013217, -16.114422, 16.936274, 54.634808, 0.051475, -0.005815, -2.434941

149391476.563450, 0.008836, -0.032783, 0.019405, 0.014889, 0.062065, 1.013217, -16.064566, 16.926031, 54.689651, 0.051757, -0.006345, -2.435360

149391476.564463, -0.013177, -0.014153, 0.013316, -0.000000, 0.046549, 1.013217, -16.024681, 16.917837, 54.733524, 0.051507, -0.006367, -2.434727

149391476.565525, -0.023663, -0.003988, 0.007952, -0.000000, 0.046549, 1.013217, -16.013309, 16.870466, 54.815273, 0.051146, -0.006287, -2.434179

149391476.566538, -0.020773, -0.003605, 0.009878, -0.000000, 0.046549, 0.982041, -16.004211, 16.832569, 54.880672, 0.050863, -0.006202, -2.433706

149391476.567581, -0.011964, -0.005024, 0.010567, -0.000000, 0.046549, 0.982041, -15.996933, 16.802252, 54.932991, 0.050669, -0.006136, -2.433251

149391476.568588, 0.000846, -0.003423, 0.012138, -0.000000, 0.093098, 0.982041, -15.991111, 16.777998, 54.974846, 0.051558, -0.006089, -2.434821

149391476.569651, 0.005612, -0.000959, 0.015172, -0.000000, 0.093098, 0.982041, -15.945380, 16.779003, 54.985004, 0.052479, -0.006020, -2.436293

149391476.570664, -0.010951, 0.008330, 0.022627, -0.000000, 0.046549, 0.982041, -15.908795, 16.779808, 54.993134, 0.052266, -0.005830, -2.435626

149391476.571676, -0.014308, 0.009949, 0.035007, -0.000000, 0.046549, 0.982041, -15.879528, 16.780451, 54.999634, 0.052022, -0.005634, -2.434831

149391476.572719, 0.007820, 0.010935, 0.048024, -0.000000, 0.046549, 0.982041, -15.876651, 16.780966, 54.888214, 0.052005, -0.005436, -2.433901

149391476.573777, 0.002273, 0.019974, 0.058376, -0.000000, 0.077582, 0.982041, -15.874349, 16.781378, 54.799080, 0.052564, -0.005164, -2.434168

149391476.574789, -0.018107, 0.030019, 0.068509, -0.000000, 0.077582, 0.982041, -15.872507, 16.781708, 54.727772, 0.052909, -0.004810, -2.434344

149391476.575802, -0.019819, 0.041347, 0.090389, -0.000000, 0.062065, 0.997629, -15.850497, 16.843195, 54.764023, 0.052892, -0.004352, -2.433528

149391476.576864, -0.034052, 0.074264, 0.109416, -0.000000, 0.062065, 0.997629, -15.832890, 16.892385, 54.793022, 0.052718, -0.003553, -2.432422

149391476.577870, -0.054864, 0.115159, 0.122959, -0.000000, 0.077582, 0.997629, -15.818803, 16.931738, 54.816223, 0.052672, -0.002422, -2.431860

149391476.578927, -0.072579, 0.157003, 0.133955, -0.000000, 0.077582, 0.997629, -15.807534, 16.963221, 54.834782, 0.052417, -0.000831, -2.431078

149391476.579940, -0.086323, 0.194571, 0.139758, -0.015630, 0.077582, 0.997629, -15.839592, 16.804733, 54.802982, 0.052066, 0.001351, -2.429883

149391476.580952, -0.094264, 0.215646, 0.130595, -0.015630, 0.077582, 0.997629, -15.865238, 16.677942, 54.777542, 0.051648, 0.003700, -2.428910

149391476.582017, -0.106482, 0.219922, 0.126014, -0.000000, 0.062065, 0.997629, -15.885755, 16.576509, 54.757191, 0.050752, 0.005847, -2.427907

149391476.583015, -0.119310, 0.212897, 0.142507, -0.000000, 0.062065, 0.997629, -15.922705, 16.576996, 54.694260, 0.049821, 0.007738, -2.426877

149391476.584079, -0.111980, 0.179910, 0.172745, -0.000000, 0.062065, 1.013217, -15.952265, 16.577385, 54.643917, 0.048894, 0.009365, -2.425449

149391476.585089, -0.097624, 0.128292, 0.180381, -0.000000, 0.062065, 1.013217, -15.975912, 16.577696, 54.603642, 0.048189, 0.010356, -2.424109

149391476.586152, -0.055204, 0.051738, 0.149075, -0.015630, 0.031033, 0.997629, -16.138584, 16.659578, 54.618069, 0.047286, 0.010917, -2.421385

149391476.587135, -0.003510, -0.000182, 0.111850, -0.015630, 0.031033, 0.997629, -16.268723, 16.725084, 54.629612, 0.046938, 0.010951, -2.419258

149391476.588188, 0.053673, -0.027686, 0.100227, -0.015630, 0.031033, 0.997629, -16.372833, 16.777489, 54.638847, 0.047184, 0.010704, -2.417261

149391476.589193, 0.078856, -0.037569, 0.110077, -0.015630, 0.031033, 0.997629, -16.353439, 16.778595, 54.576263, 0.047647, 0.010374, -2.415246

149391476.590254, 0.080185, -0.028705, 0.117925, -0.000000, 0.046549, 0.982041, -16.337925, 16.779480, 54.526196, 0.048486, 0.009810, -2.414268

149391476.591267, 0.077301, -0.013748, 0.124114, -0.000000, 0.046549, 0.982041, -16.325514, 16.780190, 54.486141, 0.049242, 0.009417, -2.413285

149391476.592315, 0.080757, -0.003293, 0.110139, -0.000000, 0.062065, 0.982041, -16.315584, 16.780756, 54.454098, 0.050356, 0.009133, -2.413034

149391476.593317, 0.090120, -0.001130, 0.084498, -0.000000, 0.062065, 0.982041, -16.266567, 16.719986, 54.451786, 0.051499, 0.008892, -2.413104

149391476.594379, 0.088223, 0.002780, 0.062985, -0.000000, 0.046549, 0.966453, -16.227354, 16.671370, 54.449936, 0.052354, 0.008710, -2.412757

149391476.595392, 0.079488, 0.009001, 0.044915, -0.000000, 0.046549, 0.966453, -16.195984, 16.632477, 54.448456, 0.053061, 0.008602, -2.412633

149391476.596404, 0.069144, 0.019277, 0.026328, 0.014889, 0.046549, 0.935277, -16.150351, 16.785036, 54.493923, 0.053674, 0.008291, -2.413140

149391476.597448, 0.083236, 0.020964, 0.011422, 0.014889, 0.046549, 0.935277, -16.113844, 16.907084, 54.530296, 0.054439, 0.008017, -2.413676

149391476.598505, 0.092248, 0.013346, 0.006696, -0.000000, 0.031033, 0.950865, -16.084639, 17.004721, 54.559395, 0.054961, 0.007984, -2.413006

149391476.599517, 0.104658, 0.002301, 0.002967, -0.000000, 0.031033, 0.950865, -16.061275, 17.103239, 54.536026, 0.055556, 0.007838, -2.412317

149391476.600530, 0.103352, -0.012697, -0.002776, -0.000000, 0.031033, 0.950865, -16.042585, 17.182053, 54.517330, 0.056126, 0.007549, -2.411643

149391476.601580, 0.091309, -0.014224, -0.015874, -0.000000, 0.031033, 0.982041, -16.027632, 17.245104, 54.502373, 0.056576, 0.007251, -2.411032

149391476.602624, 0.075333, -0.007645, -0.019726, -0.000000, 0.031033, 0.982041, -15.995133, 17.213913, 54.490406, 0.056849, 0.007029, -2.410467

149391476.603630, 0.059451, -0.005202, -0.031943, 0.014889, 0.015516, 0.919689, -15.969135, 17.188959, 54.480835, 0.056641, 0.006517, -2.410062

149391476.604694, 0.032784, -0.002700, -0.041736, 0.014889, 0.015516, 0.919689, -15.948337, 17.168997, 54.473175, 0.056193, 0.006046, -2.409784

149391476.605705, 0.018123, 0.006768, -0.053953, -0.000000, 0.031033, 0.966453, -15.931698, 17.153027, 54.467049, 0.055890, 0.006013, -2.409585

149391476.606718, -0.003487, 0.016194, -0.068365, -0.000000, 0.031033, 0.966453, -15.959459, 17.242290, 54.438824, 0.055378, 0.006082, -2.409488

149391476.607762, -0.004311, 0.020039, -0.074999, -0.000000, 0.031033, 0.935277, -15.981668, 17.313702, 54.416245, 0.054887, 0.006199, -2.409485

149391476.608768, -0.019469, 0.020813, -0.083885, -0.000000, 0.031033, 0.935277, -15.999435, 17.370831, 54.398178, 0.054258, 0.006317, -2.409515

149391476.609831, -0.040289, 0.023066, -0.082717, -0.000000, 0.062065, 0.935277, -16.013649, 17.416534, 54.383728, 0.054072, 0.006475, -2.410794

149391476.610844, -0.052298, 0.010022, -0.094431, -0.000000, 0.062065, 0.935277, -16.025021, 17.453098, 54.372166, 0.053790, 0.006492, -2.412110

149391476.611894, -0.059569, -0.016501, -0.105001, -0.000000, 0.062065, 0.950865, -16.034117, 17.482349, 54.362915, 0.053396, 0.006249, -2.413500

149391476.612890, -0.073265, -0.024227, -0.091429, -0.000000, 0.062065, 0.950865, -16.000322, 17.383301, 54.308868, 0.052910, 0.005934, -2.414724

149391476.613957, -0.072918, -0.009664, -0.097278, -0.015630, 0.062065, 0.966453, -15.973286, 17.304062, 54.265633, 0.052365, 0.006092, -2.415468

149391476.614969, -0.042380, -0.016038, -0.100612, -0.015630, 0.062065, 0.966453, -15.951656, 17.240671, 54.231041, 0.052172, 0.006188, -2.416211

149391476.615982, -0.043282, -0.019887, -0.042879, -0.015630, 0.031033, 0.997629, -15.934353, 17.189959, 54.203369, 0.051312, 0.006187, -2.415169

149391476.617057, -0.050743, -0.018272, 0.042043, -0.015630, 0.031033, 0.997629, -15.961583, 17.210613, 54.251205, 0.050369, 0.006148, -2.413285

149391476.618055, -0.060737, -0.004432, 0.059995, -0.000000, 0.062065, 0.997629, -15.983367, 17.227137, 54.289474, 0.050013, 0.005950, -2.413006

149391476.619120, -0.040323, -0.001050, 0.046174, -0.000000, 0.062065, 0.997629, -16.000793, 17.240355, 54.320087, 0.049836, 0.005794, -2.412838

149391476.620129, -0.020936, -0.000729, 0.047594, -0.000000, 0.062065, 0.982041, -15.973663, 17.291746, 54.414551, 0.049896, 0.005646, -2.412673

149391476.621145, -0.026475, 0.010350, 0.057356, -0.000000, 0.062065, 0.982041, -15.951959, 17.332859, 54.490120, 0.049900, 0.005605, -2.412368

149391476.622203, -0.030445, 0.027148, 0.071711, 0.074444, 0.077582, 0.872925, -15.934595, 17.365749, 54.550575, 0.050195, 0.003977, -2.415276

149391476.623208, -0.031001, 0.063653, 0.104886, 0.074444, 0.077582, 0.872925, -15.900167, 17.310429, 54.435673, 0.050500, 0.002712, -2.417834

149391476.624270, -0.046272, 0.093586, 0.139705, -0.015630, 0.077582, 1.013217, -15.872625, 17.266172, 54.343750, 0.050543, 0.003863, -2.416488

149391476.625283, -0.056046, 0.127794, 0.156504, -0.015630, 0.077582, 1.013217, -15.850592, 17.230768, 54.270210, 0.050512, 0.005279, -2.415066

149391476.626296, -0.030695, 0.133597, 0.168416, 0.029778, 0.046549, 0.982041, -15.956182, 17.222853, 54.281353, 0.050142, 0.005810, -2.413996

149391476.627345, -0.007177, 0.125961, 0.200181, 0.029778, 0.046549, 0.982041, -16.040655, 17.216520, 54.290268, 0.050012, 0.006279, -2.412617

149391476.628359, 0.018785, 0.103054, 0.214231, 0.029778, 0.046549, 0.966453, -16.108234, 17.211454, 54.297398, 0.050159, 0.006455, -2.411293

149391476.629415, 0.050245, 0.059683, 0.200181, -0.046891, 0.062065, 0.966453, -16.162296, 17.207401, 54.303101, 0.050948, 0.007814, -2.407931

149391476.630421, 0.102474, 0.005316, 0.148257, -0.046891, 0.062065, 0.966453, -16.143938, 17.326607, 54.284340, 0.052208, 0.008609, -2.405175

149391476.631484, 0.158673, -0.042332, 0.106108, -0.000000, 0.077582, 0.982041, -16.129251, 17.421972, 54.269333, 0.054398, 0.007925, -2.405183

149391476.632481, 0.178221, -0.072264, 0.071594, -0.000000, 0.077582, 0.982041, -16.117502, 17.498264, 54.257328, 0.056629, 0.007011, -2.405547

149391476.633534, 0.180053, -0.088452, 0.045021, -0.000000, 0.062065, 0.966453, -16.128639, 17.538889, 54.177750, 0.058639, 0.005932, -2.405537

149391476.634547, 0.185857, -0.090285, 0.029750, -0.000000, 0.062065, 0.966453, -16.137548, 17.571390, 54.114086, 0.060593, 0.004901, -2.405678

149391476.635593, 0.184635, -0.084176, 0.016616, -0.000000, 0.062065, 0.966453, -16.144676, 17.597391, 54.063156, 0.062557, 0.003931, -2.405924

149391476.636610, 0.184024, -0.070737, 0.016005, -0.000000, 0.062065, 0.966453, -16.068232, 17.781456, 54.045738, 0.064422, 0.003138, -2.405990

149391476.637653, 0.184024, -0.061880, 0.024863, -0.000000, 0.077582, 0.982041, -16.007076, 17.928709, 54.031803, 0.066591, 0.002424, -2.406391

149391476.638660, 0.182497, -0.053022, 0.025473, -0.000000, 0.077582, 0.982041, -15.958153, 18.046511, 54.020653, 0.068638, 0.001834, -2.406665

149391476.639722, 0.179137, -0.052106, 0.012340, -0.000000, 0.062065, 0.966453, -15.877941, 18.181568, 54.035057, 0.070413, 0.001247, -2.406348

149391476.640731, 0.155034, -0.038750, -0.000478, -0.000000, 0.062065, 0.966453, -15.813772, 18.289614, 54.046581, 0.071820, 0.000839, -2.406047

149391476.641748, 0.121571, -0.018200, 0.003120, 0.014889, 0.046549, 0.950865, -15.762437, 18.376051, 54.055801, 0.072577, 0.000321, -2.405598

149391476.642794, 0.109144, -0.002867, 0.009333, 0.014889, 0.046549, 0.950865, -15.721369, 18.445200, 54.063179, 0.073226, -0.000040, -2.405014

149391476.643848, 0.088607, 0.028589, 0.013622, -0.015630, 0.062065, 0.982041, -15.709050, 18.520927, 53.999107, 0.073931, 0.000556, -2.403710

149391476.644855, 0.060729, 0.074931, 0.010644, -0.015630, 0.062065, 0.982041, -15.699195, 18.581511, 53.947849, 0.074306, 0.001585, -2.402386

149391476.645911, 0.048387, 0.102356, -0.009314, -0.015630, 0.062065, 0.935277, -15.691311, 18.629976, 53.906845, 0.074638, 0.002946, -2.401311

149391476.646923, 0.059328, 0.123524, -0.021676, -0.015630, 0.062065, 0.935277, -15.746613, 18.668749, 53.897366, 0.075053, 0.004454, -2.400376

149391476.647965, 0.050903, 0.112252, -0.045140, -0.000000, 0.062065, 0.919689, -15.790854, 18.699768, 53.889782, 0.075418, 0.005541, -2.400360

149391476.648968, 0.030097, 0.108693, -0.063625, -0.000000, 0.062065, 0.919689, -15.826248, 18.724583, 53.883713, 0.075551, 0.006541, -2.400521

149391476.650024, 0.022156, 0.108998, -0.100277, -0.015630, 0.108614, 0.904101, -15.916172, 18.805658, 53.855534, 0.076659, 0.007934, -2.402573

149391476.651037, 0.010627, 0.076803, -0.141521, -0.015630, 0.108614, 0.904101, -15.988111, 18.870520, 53.832993, 0.077615, 0.008964, -2.404970

149391476.652089, 0.000237, 0.027047, -0.148409, -0.015630, 0.124131, 0.919689, -16.045662, 18.922409, 53.814960, 0.078740, 0.009473, -2.408149

149391476.653086, -0.025781, 0.008538, -0.120168, -0.015630, 0.124131, 0.919689, -16.091703, 18.963921, 53.800533, 0.079590, 0.009752, -2.410918

149391476.654149, -0.079232, 0.028696, -0.092985, -0.000000, 0.108614, 0.966453, -16.149073, 18.935905, 53.788990, 0.079396, 0.009913, -2.413058

149391476.655158, -0.116733, 0.047826, -0.078170, -0.000000, 0.108614, 0.966453, -16.194967, 18.913492, 53.779758, 0.078877, 0.010228, -2.414990

149391476.656213, -0.160410, 0.076842, -0.070229, -0.000000, 0.062065, 0.950865, -16.231684, 18.895561, 53.772373, 0.076943, 0.010868, -2.415033

149391476.657218, -0.194408, 0.092268, -0.048119, -0.000000, 0.062065, 0.950865, -16.261057, 18.819992, 53.719814, 0.074792, 0.011590, -2.414883

149391476.658264, -0.225868, 0.099903, -0.032236, -0.000000, 0.062065, 0.950865, -16.284555, 18.759537, 53.677769, 0.072283, 0.012402, -2.414637

149391476.659275, -0.235336, 0.125865, -0.023684, -0.015630, 0.046549, 0.997629, -16.303354, 18.711172, 53.644131, 0.069435, 0.013709, -2.413145

149391476.660337, -0.219759, 0.140526, -0.024295, -0.015630, 0.046549, 0.997629, -16.400537, 18.631664, 53.733841, 0.066689, 0.015209, -2.411804

149391476.661350, -0.177458, 0.126803, -0.034249, -0.000000, 0.062065, 0.982041, -16.478285, 18.568058, 53.805611, 0.064854, 0.016183, -2.411796

149391476.662396, -0.147709, 0.090646, -0.056551, -0.000000, 0.062065, 0.982041, -16.540483, 18.517174, 53.863026, 0.063298, 0.016824, -2.412124

149391476.663401, -0.106925, 0.049269, -0.075394, -0.031260, 0.062065, 0.982041, -16.590242, 18.415241, 53.862309, 0.062221, 0.017654, -2.411620

149391476.664463, -0.074176, 0.012351, -0.067826, -0.031260, 0.062065, 0.982041, -16.630049, 18.333696, 53.861736, 0.061447, 0.018109, -2.411195

149391476.665466, -0.066036, -0.008839, -0.059820, -0.031260, 0.062065, 0.982041, -16.661894, 18.268459, 53.861279, 0.060813, 0.018332, -2.410738

149391476.666526, -0.048799, -0.032274, -0.053179, -0.031260, 0.062065, 0.982041, -16.687370, 18.216270, 53.860912, 0.060335, 0.018301, -2.410322

149391476.667523, -0.042988, -0.057608, -0.040099, -0.046891, 0.077582, 0.966453, -16.687216, 18.133703, 53.860619, 0.060289, 0.018372, -2.409843

149391476.668576, -0.051651, -0.062076, -0.036564, -0.046891, 0.077582, 0.966453, -16.687092, 18.067650, 53.860382, 0.060132, 0.018363, -2.409411

149391476.669589, -0.055927, -0.062992, -0.045422, -0.000000, 0.093098, 0.982041, -16.686993, 18.014807, 53.860195, 0.060242, 0.017373, -2.411411

149391476.670601, -0.075381, -0.051799, -0.048352, -0.000000, 0.093098, 0.982041, -16.707449, 18.013348, 53.860043, 0.060158, 0.016515, -2.413406

149391476.671664, -0.083016, -0.041720, -0.037051, -0.000000, 0.046549, 0.966453, -16.723814, 18.012180, 53.859921, 0.059049, 0.015773, -2.413498

149391476.672663, -0.079176, -0.037552, -0.025507, -0.000000, 0.046549, 0.966453, -16.736906, 18.011248, 53.859825, 0.058054, 0.015103, -2.413457

149391476.673714, -0.069735, -0.040350, -0.008824, -0.015630, 0.046549, 0.997629, -16.767916, 18.010502, 53.976368, 0.057105, 0.014700, -2.412703

149391476.674727, -0.060493, -0.029932, 0.015880, -0.015630, 0.046549, 0.997629, -16.792725, 18.009905, 54.069603, 0.056297, 0.014410, -2.411726

149391476.675789, -0.043970, -0.015548, 0.030496, -0.000000, 0.062065, 0.966453, -16.812571, 18.009426, 54.144192, 0.055997, 0.013940, -2.411779

149391476.676802, -0.025403, -0.010736, 0.035834, -0.000000, 0.062065, 0.966453, -16.746302, 17.866186, 54.110565, 0.055910, 0.013534, -2.411847

149391476.677851, -0.020084, -0.012005, 0.035079, -0.015630, 0.077582, 0.966453, -16.693287, 17.751595, 54.083664, 0.056192, 0.013435, -2.412045

149391476.678865, -0.019960, -0.025207, 0.024175, -0.015630, 0.077582, 0.966453, -16.650875, 17.659922, 54.062141, 0.056476, 0.013219, -2.412407

149391476.679877, -0.021633, -0.037832, -0.001151, -0.015630, 0.077582, 0.982041, -16.616945, 17.586582, 54.044926, 0.056709, 0.012891, -2.413010

149391476.680940, -0.024168, -0.051388, -0.024748, -0.015630, 0.077582, 0.982041, -16.610338, 17.527912, 54.054478, 0.056897, 0.012424, -2.413895

149391476.681953, -0.020669, -0.061369, -0.042766, -0.031260, 0.046549, 0.950865, -16.605053, 17.480976, 54.062119, 0.056515, 0.012244, -2.413184

149391476.682994, -0.026812, -0.063067, -0.047845, -0.031260, 0.046549, 0.950865, -16.600824, 17.443426, 54.068230, 0.056071, 0.012036, -2.412575

149391476.684004, -0.031629, -0.065926, -0.039064, -0.015630, 0.046549, 0.966453, -16.576906, 17.515427, 54.166416, 0.055593, 0.011486, -2.412392

149391476.685066, -0.033655, -0.066631, -0.035850, -0.015630, 0.046549, 0.966453, -16.557772, 17.573029, 54.244965, 0.055087, 0.010906, -2.412151

149391476.686080, -0.047094, -0.061133, -0.031879, -0.015630, 0.108614, 0.966453, -16.542463, 17.619110, 54.307804, 0.055757, 0.010365, -2.414459

149391476.687090, -0.046700, -0.062537, -0.030311, -0.000000, 0.077582, 0.966453, -16.530216, 17.513117, 54.311428, 0.055773, 0.009543, -2.415922

149391476.688137, -0.051099, -0.067799, -0.023992, -0.000000, 0.077582, 0.966453, -16.520418, 17.428324, 54.314327, 0.055727, 0.008657, -2.417364

149391476.689191, -0.038362, -0.076836, -0.021094, -0.015630, 0.046549, 0.982041, -16.512581, 17.360489, 54.316647, 0.055159, 0.008018, -2.416971

149391476.690204, -0.019913, -0.088973, -0.020650, -0.015630, 0.046549, 0.982041, -16.506311, 17.306221, 54.318501, 0.054801, 0.007303, -2.416610

149391476.691256, -0.016205, -0.089492, -0.009452, -0.000000, 0.031033, 0.997629, -16.460222, 17.221991, 54.296661, 0.054160, 0.006234, -2.416136

149391476.692259, -0.004801, -0.081329, 0.006595, -0.000000, 0.031033, 0.997629, -16.423351, 17.154606, 54.279190, 0.053654, 0.005301, -2.415522

149391476.693307, 0.011745, -0.074533, 0.019911, -0.000000, 0.046549, 0.982041, -16.393854, 17.100698, 54.265213, 0.053649, 0.004420, -2.415388

149391476.694702, 0.018973, -0.064891, 0.023080, -0.000000, 0.031033, 0.966453, -16.370256, 17.139204, 54.324001, 0.053480, 0.003423, -2.414557

149391476.695476, 0.025152, -0.068309, 0.021099, -0.000000, 0.031033, 0.966453, -16.351379, 17.170010, 54.371033, 0.053244, 0.002822, -2.413847

149391476.696392, 0.042562, -0.071356, 0.014974, -0.000000, 0.031033, 0.966453, -16.336277, 17.194653, 54.408657, 0.053205, 0.002113, -2.413159

149391476.697438, 0.041965, -0.072545, 0.012266, -0.015630, 0.046549, 0.997629, -16.242050, 17.153143, 54.322136, 0.053499, 0.001632, -2.412450

149391476.698442, 0.021049, -0.063842, 0.011709, -0.015630, 0.046549, 0.997629, -16.166668, 17.119936, 54.252922, 0.053564, 0.001276, -2.411732

149391476.699505, -0.000624, -0.052929, 0.023423, -0.015630, 0.062065, 0.966453, -16.106363, 17.093370, 54.197548, 0.053769, 0.001010, -2.411539

149391476.700510, -0.003302, -0.050021, 0.041468, -0.015630, 0.062065, 0.966453, -16.058119, 17.112934, 54.176575, 0.053944, 0.000799, -2.411136

149391476.701518, -0.002335, -0.048968, 0.048369, -0.000000, 0.046549, 0.982041, -16.019524, 17.128584, 54.159798, 0.053790, 0.000274, -2.410550

149391476.702564, -0.005575, -0.043153, 0.051537, -0.000000, 0.046549, 0.982041, -15.988647, 17.141104, 54.146374, 0.053605, -0.000202, -2.409895

149391476.703618, 0.001420, -0.040451, 0.049555, -0.000000, 0.062065, 0.966453, -15.963946, 17.151121, 54.135635, 0.053830, -0.000646, -2.409895

149391476.704627, 0.011257, -0.034516, 0.047315, -0.000000, 0.062065, 0.966453, -15.923649, 17.159134, 54.197018, 0.054147, -0.001001, -2.409906

149391476.705681, 0.005638, -0.022726, 0.049907, -0.000000, 0.062065, 0.982041, -15.891411, 17.165545, 54.246124, 0.054384, -0.001245, -2.409801

149391476.706693, -0.003451, -0.019856, 0.053342, -0.000000, 0.062065, 0.982041, -15.865621, 17.170673, 54.285408, 0.054524, -0.001447, -2.409665

149391476.707739, -0.022216, -0.008375, 0.056405, -0.000000, 0.046549, 0.982041, -15.865524, 17.113552, 54.316833, 0.054152, -0.001536, -2.408906

149391476.708744, -0.021748, 0.002267, 0.055815, -0.000000, 0.046549, 0.982041, -15.865448, 17.067854, 54.341976, 0.053801, -0.001513, -2.408217

149391476.709806, -0.023682, 0.005807, 0.051949, -0.000000, 0.046549, 0.950865, -15.865387, 17.031296, 54.362091, 0.053456, -0.001452, -2.407633

149391476.710819, -0.022286, 0.006582, 0.045473, -0.000000, 0.046549, 0.950865, -15.783192, 17.022457, 54.354858, 0.053144, -0.001382, -2.407105

149391476.711832, -0.023013, 0.010629, 0.038237, -0.000000, 0.046549, 0.950865, -15.717436, 17.015387, 54.349072, 0.052831, -0.001269, -2.406620

149391476.712875, -0.017745, 0.012200, 0.032947, -0.000000, 0.046549, 0.950865, -15.664831, 17.009731, 54.344440, 0.052571, -0.001137, -2.406157

149391476.713932, -0.020660, 0.011644, 0.028067, 0.014889, 0.015516, 0.966453, -15.643284, 17.046022, 54.387386, 0.051632, -0.001332, -2.405057

149391476.714938, -0.031288, 0.019771, 0.029569, 0.014889, 0.015516, 0.966453, -15.626046, 17.075056, 54.421741, 0.050617, -0.001447, -2.403947

149391476.715945, -0.022258, 0.024138, 0.030143, 0.014889, 0.015516, 0.966453, -15.612256, 17.098282, 54.449226, 0.049712, -0.001517, -2.402830

149391476.717010, -0.007138, 0.036188, 0.035787, 0.014889, 0.046549, 0.950865, -15.601224, 17.116863, 54.471214, 0.049618, -0.001440, -2.402817

149391476.718015, -0.005194, 0.037221, 0.037127, 0.014889, 0.046549, 0.950865, -15.592398, 17.111320, 54.488804, 0.049550, -0.001376, -2.402813

149391476.719070, 0.000610, 0.045773, 0.036822, 0.059555, 0.046549, 0.966453, -15.585337, 17.106886, 54.502876, 0.049475, -0.002122, -2.404146

149391476.720082, 0.025115, 0.059161, 0.039634, 0.059555, 0.046549, 0.966453, -15.579688, 17.103338, 54.514133, 0.049646, -0.002741, -2.405435

149391476.721145, 0.070930, 0.069240, 0.034442, 0.133999, 0.031033, 0.966453, -15.554633, 17.100500, 54.476490, 0.049838, -0.004706, -2.407999

149391476.722152, 0.113390, 0.078846, 0.040893, 0.133999, 0.031033, 0.966453, -15.534589, 17.098230, 54.446377, 0.050413, -0.006578, -2.410456

149391476.723158, 0.112779, 0.114581, 0.084875, 0.446663, 0.108614, 0.997629, -15.518554, 17.096415, 54.422287, 0.050862, -0.013846, -2.417967

149391476.724221, 0.093231, 0.202546, 0.073880, 0.446663, 0.108614, 0.997629, -15.628943, 17.176594, 54.379692, 0.051218, -0.019987, -2.425316

149391476.725233, 0.068491, 0.308226, 0.028676, 0.848660, 0.263778, 0.982041, -15.717256, 17.240738, 54.345615, 0.051369, -0.031174, -2.436079

149391476.726296, 0.017484, 0.395885, 0.035090, 0.848660, 0.263778, 0.982041, -15.787905, 17.292053, 54.318352, 0.051148, -0.041082, -2.446473

149391476.727293, 0.036116, 0.450863, 0.147184, 1.071991, 0.124131, 1.075569, -15.844424, 17.333105, 54.296543, 0.049085, -0.051524, -2.453359

149391476.728347, 0.214183, 0.427039, 0.506678, 1.071991, 0.124131, 1.075569, -15.889640, 17.365946, 54.279095, 0.048789, -0.061949, -2.456295

149391476.729359, 0.579480, 0.285318, 0.868310, 0.937992, 0.015516, 1.278212, -15.925813, 17.392220, 54.265137, 0.051408, -0.070753, -2.454050

149391476.730372, 0.787480, 0.163145, 0.992010, 0.937992, 0.015516, 1.278212, -15.954751, 17.413239, 54.253971, 0.055896, -0.080673, -2.450675

149391476.731434, 0.726699, -0.140760, 0.976739, 0.669994, 0.155164, 1.028805, -15.977901, 17.858624, 54.081768, 0.062074, -0.092763, -2.449256

149391476.732433, 0.746857, -0.481928, 0.533556, 0.669994, 0.155164, 1.028805, -15.996422, 18.214931, 53.944008, 0.068357, -0.107571, -2.452913

149391476.733484, 0.827797, -0.796219, -0.008282, 0.625328, 0.077582, 0.826161, -16.011238, 18.499979, 53.833797, 0.075325, -0.126433, -2.461184

149391476.734494, 0.862005, -0.958709, -0.393432, 0.625328, 0.077582, 0.826161, -15.756119, 19.095364, 53.652336, 0.082906, -0.145880, -2.473060

149391476.735550, 0.834822, -0.965123, -0.485367, 0.565773, 0.077582, 0.639106, -15.552023, 19.571671, 53.507164, 0.090896, -0.166838, -2.486388

149391476.736591, 0.728837, -0.837147, -0.470096, 0.565773, 0.077582, 0.639106, -15.388746, 19.952717, 53.391029, 0.097803, -0.185916, -2.499067

149391476.737607, 0.628655, -0.641975, -0.388851, 0.297775, -0.046450, 0.639106, -15.093834, 20.543268, 53.251472, 0.101524, -0.196789, -2.504865

149391476.738622, 0.441730, -0.460854, -0.305773, 0.297775, -0.046450, 0.639106, -14.857904, 21.015709, 53.139828, 0.103204, -0.205757, -2.509294

149391476.739685, 0.102089, -0.286757, -0.106631, -0.171932, -0.046450, 0.857337, -14.669161, 21.393661, 53.050510, 0.098365, -0.202144, -2.494406

149391476.740692, -0.246410, -0.265682, 0.192998, -0.171932, -0.046450, 0.857337, -14.518166, 21.696024, 52.979057, 0.089561, -0.198440, -2.476604

149391476.741748, -0.408289, -0.529271, 0.122138, -0.828400, -0.108382, 1.153508, -14.294688, 21.958323, 52.875248, 0.069784, -0.193279, -2.444118

149391476.742754, -0.447079, -0.869828, -0.214449, -0.828400, -0.108382, 1.153508, -14.115906, 22.168161, 52.792198, 0.051122, -0.190596, -2.416005

149391476.743811, -0.431502, -1.082104, -0.554090, -0.828400, -0.108382, 1.262624, -13.972880, 22.336033, 52.725758, 0.034674, -0.190427, -2.393224

149391476.744823, -0.485869, -1.014908, -0.711082, -1.015962, -0.108382, 1.262624, -13.694169, 22.347879, 52.742580, 0.016208, -0.187886, -2.369663

149391476.745836, -0.539625, -0.721082, -0.735211, -1.015962, -0.108382, 1.262624, -13.471200, 22.357357, 52.756039, -0.002255, -0.182213, -2.346712

149391476.746898, -0.547872, -0.367697, -0.725437, -0.984702, -0.061933, 1.387327, -13.292825, 22.364939, 52.766804, -0.018811, -0.173387, -2.325045

149391476.747896, -0.508165, -0.029277, -0.743153, -0.984702, -0.061933, 1.387327, -13.211734, 22.146515, 53.031979, -0.034180, -0.160998, -2.303559

149391476.748955, -0.472430, 0.189412, -0.795687, -0.984702, 0.015516, 1.402915, -13.146861, 21.971775, 53.244118, -0.048403, -0.146036, -2.282545

149391476.749961, -0.460212, 0.253553, -0.841502, -0.984702, 0.015516, 1.402915, -13.094962, 21.831984, 53.413830, -0.061779, -0.130663, -2.262116

149391476.751025, -0.279396, 0.139321, -0.755675, -0.797140, 0.000000, 1.247036, -13.115052, 21.475252, 53.526276, -0.072196, -0.117110, -2.242935

149391476.752037, -0.106216, 0.022341, -0.554701, -0.797140, 0.000000, 1.247036, -13.131124, 21.189867, 53.616234, -0.080686, -0.104770, -2.221659

149391476.753085, 0.064521, -0.114798, -0.367165, -0.562687, 0.108614, 1.028805, -13.143982, 20.961559, 53.688198, -0.085043, -0.093736, -2.197952

149391476.754100, 0.171117, -0.232695, -0.262707, -0.562687, 0.108614, 1.028805, -13.154268, 20.778913, 53.745770, -0.088177, -0.083876, -2.173398

149391476.755111, 0.235563, -0.322493, -0.189403, -0.359494, 0.232745, 0.872925, -13.203570, 20.673613, 53.791828, -0.087295, -0.074706, -2.145379

149391476.756167, 0.304591, -0.381441, -0.163441, -0.359494, 0.232745, 0.872925, -13.243011, 20.589373, 53.828674, -0.085369, -0.066466, -2.117583

149391476.757170, 0.382782, -0.417482, -0.187876, -0.234453, 0.310327, 0.763810, -13.274565, 20.521980, 53.858150, -0.085801, -0.056430, -2.071212

149391476.758215, 0.345824, -0.374416, -0.182684, -0.234453, 0.310327, 0.763810, -13.176589, 20.631332, 53.905056, -0.085571, -0.046307, -2.026572

149391476.759275, 0.283821, -0.343873, -0.164663, -0.093781, 0.294811, 0.779397, -13.098208, 20.718813, 53.942581, -0.072725, -0.051851, -2.049740

149391476.760280, 0.189137, -0.305388, -0.169550, -0.093781, 0.294811, 0.779397, -13.035504, 20.788797, 53.972603, -0.061143, -0.056427, -2.072348

149391476.761338, 0.103005, -0.240026, -0.177186, 0.029778, 0.263778, 0.794985, -12.903195, 20.763153, 53.973293, -0.052628, -0.061948, -2.091697

149391476.762340, 0.037948, -0.151450, -0.130760, 0.029778, 0.263778, 0.794985, -12.797349, 20.742638, 53.973846, -0.044936, -0.066181, -2.110208

149391476.763389, -0.001147, -0.068067, -0.058983, 0.104221, 0.232745, 0.888513, -12.712671, 20.726225, 53.974289, -0.039465, -0.069881, -2.124695

149391476.764401, -0.027136, 0.004827, 0.058271, 0.104221, 0.232745, 0.888513, -12.644929, 20.672279, 53.974644, -0.034401, -0.072644, -2.137784

149391476.765413, -0.051876, 0.052169, 0.141960, 0.044666, 0.170680, 0.966453, -12.549663, 20.629122, 53.974926, -0.030779, -0.072321, -2.143979

149391476.766476, -0.083641, 0.103787, 0.169754, 0.044666, 0.170680, 0.966453, -12.473450, 20.594597, 53.975151, -0.027612, -0.071409, -2.149687

149391476.767472, -0.123348, 0.143494, 0.182888, 0.029778, 0.139647, 0.982041, -12.412479, 20.566977, 53.975334, -0.025475, -0.069567, -2.153120

149391476.768526, -0.172522, 0.149908, 0.196327, 0.029778, 0.139647, 0.982041, -12.343166, 20.626513, 53.975479, -0.023981, -0.067592, -2.156144

149391476.769539, -0.194208, 0.146243, 0.193578, 0.029778, 0.093098, 0.982041, -12.287716, 20.674141, 53.975594, -0.023613, -0.065524, -2.157264

149391476.770602, -0.169468, 0.185643, 0.131270, 0.029778, 0.093098, 0.982041, -12.243356, 20.712244, 53.975685, -0.023055, -0.063024, -2.158868

149391476.771614, -0.169773, 0.223212, 0.075375, 0.029778, 0.062065, 0.997629, -12.248940, 20.599871, 54.045731, -0.023051, -0.060206, -2.160020

149391476.772660, -0.171606, 0.257420, 0.041778, 0.089333, 0.062065, 0.997629, -12.253408, 20.509972, 54.101768, -0.023196, -0.058301, -2.163553

149391476.773665, -0.174660, 0.282160, 0.021008, 0.089333, 0.062065, 0.997629, -12.256983, 20.438051, 54.146599, -0.023288, -0.056300, -2.167286

149391476.774728, -0.162748, 0.284909, 0.005737, 0.089333, 0.062065, 1.044393, -12.300915, 20.319290, 54.112492, -0.023395, -0.054059, -2.170974

149391476.775739, -0.126707, 0.258642, 0.014289, 0.089333, 0.062065, 1.044393, -12.336061, 20.224281, 54.085205, -0.023068, -0.052265, -2.174568

149391476.776752, -0.083641, 0.231153, 0.032309, 0.104221, 0.031033, 1.028805, -12.364177, 20.148275, 54.063377, -0.022932, -0.051020, -2.177514

149391476.777798, -0.014605, 0.201768, 0.042094, 0.104221, 0.031033, 1.028805, -12.386670, 20.087471, 54.045914, -0.022126, -0.050023, -2.180328

149391476.778815, 0.053277, 0.182570, 0.051673, 0.119110, 0.046549, 0.997629, -12.445737, 20.038826, 54.055267, -0.020399, -0.049703, -2.184062

149391476.779878, 0.105201, 0.172797, 0.072137, 0.119110, 0.046549, 0.997629, -12.492990, 19.999910, 54.062752, -0.018153, -0.049400, -2.187530

149391476.780891, 0.144296, 0.171575, 0.088020, 0.089333, 0.062065, 1.013217, -12.530793, 19.968779, 54.068737, -0.015257, -0.048592, -2.190431

149391476.781903, 0.190722, 0.158441, 0.107262, 0.089333, 0.062065, 1.013217, -12.643181, 20.025505, 54.050201, -0.011967, -0.047923, -2.193106

149391476.782946, 0.217600, 0.151416, 0.124061, 0.104221, 0.077582, 1.013217, -12.733091, 20.070887, 54.035374, -0.008173, -0.047640, -2.196478

149391476.784003, 0.216684, 0.154776, 0.128031, 0.104221, 0.077582, 1.013217, -12.805019, 20.107191, 54.023510, -0.004435, -0.047300, -2.199735

149391476.785016, 0.216684, 0.163939, 0.119785, 0.104221, 0.093098, 0.997629, -12.862562, 20.177052, 53.990696, -0.000552, -0.047032, -2.203673

149391476.786029, 0.226457, 0.183792, 0.095961, 0.104221, 0.093098, 0.997629, -12.908596, 20.232941, 53.964443, 0.003365, -0.046561, -2.207750

149391476.787090, 0.225236, 0.196315, 0.072748, 0.119110, 0.077582, 0.966453, -12.945423, 20.277651, 53.943443, 0.007002, -0.046213, -2.211963

149391476.788088, 0.231344, 0.204867, 0.051368, 0.119110, 0.077582, 0.966453, -13.057031, 20.456276, 53.856670, 0.010506, -0.045895, -2.216280

149391476.789154, 0.239286, 0.203034, 0.026933, 0.089333, 0.093098, 0.997629, -13.146317, 20.599176, 53.787254, 0.014539, -0.044803, -2.220222

149391476.790167, 0.236231, 0.189290, 0.027239, 0.089333, 0.093098, 0.997629, -13.217745, 20.713497, 53.731720, 0.018340, -0.043962, -2.224054

149391476.791180, 0.199579, 0.164244, 0.032736, 0.089333, 0.139647, 0.982041, -13.274888, 20.804955, 53.687294, 0.022605, -0.043600, -2.229570

149391476.792235, 0.177894, 0.135228, 0.050452, 0.089333, 0.139647, 0.982041, -13.320602, 20.939344, 53.651752, 0.026641, -0.043461, -2.234704

149391476.793242, 0.152022, 0.098594, 0.059555, 0.059555, 0.108614, 0.982041, -13.357174, 21.046856, 53.623318, 0.029750, -0.042978, -2.237544

149391476.794304, 0.141646, 0.061236, 0.062189, 0.059555, 0.108614, 0.982041, -13.386431, 21.132866, 53.600571, 0.032770, -0.042835, -2.240234

149391476.795317, 0.131189, 0.034233, 0.072840, 0.044666, 0.124131, 0.950865, -13.409837, 21.181265, 53.372456, 0.035970, -0.042761, -2.243068

149391476.796331, 0.146965, 0.020356, 0.068316, 0.044666, 0.124131, 0.950865, -13.428561, 21.219984, 53.189964, 0.039266, -0.042818, -2.245856

149391476.797379, 0.144768, 0.010957, 0.056114, 0.059555, 0.124131, 0.966453, -13.443541, 21.250959, 53.043972, 0.042458, -0.043253, -2.249048

149391476.798390, 0.124677, 0.012222, 0.045065, 0.059555, 0.124131, 0.966453, -13.455524, 21.398190, 53.043797, 0.045342, -0.043656, -2.252215

149391476.799455, 0.104112, 0.019739, 0.033053, 0.059555, 0.108614, 0.950865, -13.465112, 21.515972, 53.043659, 0.047750, -0.043935, -2.254860

149391476.800468, 0.091455, 0.030984, 0.037740, 0.059555, 0.108614, 0.950865, -13.472781, 21.610199, 53.043549, 0.049932, -0.044102, -2.257362

149391476.801480, 0.070693, 0.048870, 0.047111, 0.059555, 0.108614, 0.950865, -13.478917, 21.685581, 53.020134, 0.051859, -0.044088, -2.259666

149391476.802524, 0.071596, 0.055615, 0.051800, 0.074444, 0.124131, 0.966453, -13.483826, 21.745886, 53.001404, 0.054020, -0.044325, -2.262755

149391476.803581, 0.062315, 0.058630, 0.058185, 0.074444, 0.124131, 0.966453, -13.487753, 21.794130, 52.986420, 0.056050, -0.044516, -2.265676

149391476.804593, 0.040671, 0.054406, 0.057857, 0.044666, 0.124131, 0.950865, -13.490894, 21.832726, 52.974434, 0.057896, -0.044145, -2.267696

149391476.805606, 0.024566, 0.033227, 0.056340, 0.044666, 0.124131, 0.950865, -13.493407, 21.843193, 52.941521, 0.059548, -0.043987, -2.269692

149391476.806669, -0.006151, 0.012794, 0.040503, 0.014889, 0.108614, 0.982041, -13.495418, 21.851568, 52.915188, 0.060487, -0.043318, -2.269963

149391476.807668, -0.020672, -0.012592, 0.028288, 0.014889, 0.108614, 0.982041, -13.497026, 21.858267, 52.894123, 0.061276, -0.042910, -2.270383

149391476.808731, -0.020835, -0.029968, 0.027094, 0.029778, 0.108614, 0.966453, -13.436704, 21.965668, 52.923920, 0.062068, -0.043023, -2.271326

149391476.809744, -0.026676, -0.035915, 0.028916, 0.029778, 0.108614, 0.966453, -13.388446, 22.051588, 52.947758, 0.062795, -0.043175, -2.272165

149391476.810757, -0.019536, -0.037850, 0.025616, 0.059555, 0.139647, 0.982041, -13.349839, 22.120325, 52.966827, 0.064132, -0.044021, -2.275020

149391476.811807, -0.038560, -0.034063, 0.031655, 0.059555, 0.139647, 0.982041, -13.318954, 22.216131, 52.982082, 0.065238, -0.044822, -2.277665

149391476.812813, -0.051801, -0.022881, 0.028896, 0.059555, 0.124131, 0.982041, -13.294247, 22.292776, 52.994286, 0.065907, -0.045439, -2.279657

149391476.813870, -0.047422, -0.030472, 0.030679, 0.059555, 0.124131, 0.982041, -13.274480, 22.354092, 53.004047, 0.066582, -0.046132, -2.281532

149391476.814882, -0.041340, -0.029532, 0.034817, 0.059555, 0.108614, 0.966453, -13.258667, 22.403143, 53.011860, 0.067051, -0.046785, -2.282853

149391476.815945, -0.035387, -0.030405, 0.042158, 0.059555, 0.108614, 0.966453, -13.163871, 22.319935, 52.971462, 0.067548, -0.047453, -2.284045

149391476.816957, -0.047910, -0.030710, 0.051015, -0.000000, 0.077582, 1.044393, -13.088034, 22.253368, 52.939144, 0.067138, -0.046837, -2.281729

149391476.817998, -0.043612, -0.041127, 0.051436, -0.000000, 0.077582, 1.044393, -13.027365, 22.200115, 52.913288, 0.066769, -0.046348, -2.279431

149391476.819010, -0.048499, -0.050290, 0.063348, 0.029778, 0.093098, 0.966453, -12.999366, 22.157513, 52.892605, 0.066847, -0.046574, -2.278919

149391476.820071, -0.065717, -0.044148, 0.037795, 0.029778, 0.093098, 0.966453, -12.976966, 22.123432, 52.876057, 0.066731, -0.046742, -2.278653

149391476.821082, -0.070612, -0.027372, 0.040288, 0.029778, 0.108614, 0.935277, -12.959046, 22.096167, 52.862820, 0.066997, -0.046756, -2.279073

149391476.822089, -0.066435, -0.014237, 0.046018, 0.029778, 0.108614, 0.935277, -12.883101, 22.074354, 52.898876, 0.067299, -0.046642, -2.279386

149391476.823133, -0.035586, -0.014543, 0.033801, 0.089333, 0.139647, 0.982041, -12.822346, 22.056904, 52.927723, 0.068316, -0.047806, -2.282635

149391476.824186, -0.046498, -0.002276, 0.026511, 0.089333, 0.139647, 0.982041, -12.773742, 22.042944, 52.950798, 0.069204, -0.048814, -2.285871

149391476.825193, -0.041000, -0.005636, 0.017959, 0.059555, 0.108614, 0.935277, -12.714322, 22.052185, 52.922611, 0.069706, -0.049206, -2.287327

149391476.826259, -0.033858, -0.010900, 0.000837, 0.059555, 0.108614, 0.935277, -12.666786, 22.059578, 52.900063, 0.070259, -0.049634, -2.288890

149391476.827261, -0.039125, -0.007082, -0.013533, 0.059555, 0.108614, 0.982041, -12.628757, 22.065493, 52.882023, 0.070673, -0.049930, -2.290241

149391476.828309, -0.047571, 0.001439, -0.015341, 0.059555, 0.108614, 0.982041, -12.598334, 22.070223, 52.867592, 0.070976, -0.050132, -2.291561

149391476.829322, -0.041486, 0.007987, -0.012327, 0.059555, 0.108614, 0.982041, -12.573996, 21.992374, 52.856045, 0.071347, -0.050268, -2.292846

149391476.830384, -0.025364, 0.016789, -0.009077, 0.059555, 0.124131, 0.982041, -12.554524, 21.930096, 52.846809, 0.072165, -0.050330, -2.294651

149391476.831394, -0.029913, 0.031684, 0.002775, 0.059555, 0.124131, 0.982041, -12.538948, 21.880274, 52.839420, 0.072928, -0.050259, -2.296310

149391476.832392, -0.039687, 0.046956, 0.006746, 0.059555, 0.124131, 0.919689, -12.526486, 21.881231, 52.903481, 0.073743, -0.050147, -2.298335

149391476.833459, -0.033170, 0.064207, 0.001520, 0.059555, 0.124131, 0.919689, -12.516518, 21.881998, 52.954731, 0.074585, -0.049819, -2.300354

149391476.834472, -0.034392, 0.078257, -0.007643, 0.029778, 0.124131, 0.982041, -12.508542, 21.882612, 52.995731, 0.075273, -0.048657, -2.300884

149391476.835529, -0.031874, 0.089167, -0.012565, 0.029778, 0.124131, 0.982041, -12.502162, 21.842287, 53.005207, 0.075959, -0.047367, -2.301469

149391476.836535, -0.032698, 0.087290, -0.016187, 0.014889, 0.124131, 0.997629, -12.497058, 21.810026, 53.012787, 0.076596, -0.045842, -2.301419

149391476.837578, -0.029916, 0.079771, -0.026012, 0.014889, 0.124131, 0.997629, -12.492974, 21.784218, 53.018848, 0.077242, -0.044385, -2.301493

149391476.838583, -0.033473, 0.069122, -0.032043, 0.044666, 0.093098, 0.982041, -12.530781, 21.681938, 52.953728, 0.077269, -0.043700, -2.301841

149391476.839648, -0.025293, 0.061986, -0.038245, 0.044666, 0.093098, 0.982041, -12.561026, 21.600115, 52.901630, 0.077365, -0.043056, -2.302333

149391476.840661, -0.029245, 0.048720, -0.038636, 0.059555, 0.108614, 0.966453, -12.585221, 21.534657, 52.859951, 0.077767, -0.042929, -2.304018

149391476.841673, -0.030125, 0.041416, -0.032740, 0.059555, 0.108614, 0.966453, -12.604578, 21.482288, 52.826611, 0.078151, -0.042882, -2.305658

149391476.842720, -0.030686, 0.028584, -0.024276, 0.029778, 0.124131, 0.966453, -12.661136, 21.501619, 52.869907, 0.078842, -0.042344, -2.306727

149391476.843773, -0.035422, 0.016919, -0.016290, 0.029778, 0.124131, 0.966453, -12.706382, 21.517084, 52.904545, 0.079466, -0.041941, -2.307727

149391476.844786, -0.021521, 0.002809, -0.015349, 0.014889, 0.124131, 0.966453, -12.742579, 21.529455, 52.932255, 0.080228, -0.041374, -2.308132

149391476.845799, -0.019274, -0.009211, -0.012335, 0.014889, 0.124131, 0.966453, -12.771537, 21.498537, 52.977749, 0.080996, -0.040940, -2.308554

149391476.846867, -0.023951, -0.009017, -0.007291, 0.029778, 0.124131, 0.950865, -12.794703, 21.473803, 53.014145, 0.081730, -0.040854, -2.309648

149391476.847864, -0.033314, 0.010010, -0.003251, 0.029778, 0.124131, 0.950865, -12.813236, 21.454014, 53.043262, 0.082372, -0.040582, -2.310689

149391476.848924, -0.031416, 0.024750, 0.009974, 0.059555, 0.124131, 0.966453, -12.828063, 21.397367, 53.043232, 0.082926, -0.040788, -2.312582

149391476.849937, -0.035539, 0.038880, 0.011558, 0.059555, 0.124131, 0.966453, -12.839924, 21.352051, 53.043205, 0.083442, -0.040863, -2.314453

149391476.850949, -0.035090, 0.049423, 0.007128, 0.059555, 0.108614, 0.966453, -12.849413, 21.315796, 53.043186, 0.083644, -0.040806, -2.315764

149391476.852013, -0.038537, 0.060642, 0.006380, 0.059555, 0.108614, 0.966453, -12.857004, 21.286793, 53.043171, 0.083788, -0.040609, -2.317064

149391476.853012, -0.049387, 0.064747, 0.001163, 0.029778, 0.124131, 0.966453, -12.883614, 21.181957, 53.043156, 0.084185, -0.039798, -2.318005

149391476.854075, -0.054028, 0.058600, -0.002151, 0.029778, 0.124131, 0.966453, -12.904901, 21.098089, 53.043144, 0.084496, -0.039026, -2.319035

149391476.855086, -0.045171, 0.057378, -0.001234, 0.074444, 0.031033, 0.997629, -12.921930, 21.030994, 53.043137, 0.082991, -0.039183, -2.318388

149391476.856100, -0.040632, 0.052283, -0.001208, 0.074444, 0.031033, 0.997629, -12.873945, 21.099768, 53.043129, 0.081561, -0.039386, -2.317695

149391476.857159, -0.034523, 0.050145, 0.004900, 0.074444, 0.108614, 0.950865, -12.835557, 21.154787, 53.043125, 0.081803, -0.039669, -2.319649

149391476.858206, -0.016753, 0.038326, 0.008983, 0.059555, 0.108614, 0.950865, -12.804847, 21.198803, 53.043121, 0.082247, -0.039757, -2.320990

149391476.859213, -0.009224, 0.034828, 0.011186, 0.059555, 0.108614, 0.950865, -12.841887, 21.131973, 53.043118, 0.082763, -0.039895, -2.322357

149391476.860225, -0.011123, 0.037084, 0.010951, 0.059555, 0.124131, 0.950865, -12.871520, 21.078510, 53.043114, 0.083563, -0.040029, -2.324359

149391476.861279, -0.004610, 0.040490, 0.008926, 0.059555, 0.124131, 0.950865, -12.895226, 21.035740, 53.043110, 0.084410, -0.040108, -2.326378

149391476.862323, -0.008699, 0.048607, 0.009635, 0.044666, 0.108614, 0.966453, -12.893655, 21.062748, 53.043110, 0.084863, -0.039748, -2.327095

149391476.863326, -0.007021, 0.046986, 0.004947, 0.044666, 0.108614, 0.966453, -12.892398, 21.084354, 53.043110, 0.085329, -0.039426, -2.327834

149391476.864388, -0.017338, 0.054668, 0.000358, 0.044666, 0.108614, 0.966453, -12.891392, 21.101639, 53.043110, 0.085675, -0.038999, -2.328583

149391476.865402, -0.029830, 0.056507, -0.005929, 0.044666, 0.108614, 0.966453, -12.890587, 21.115467, 53.043110, 0.085901, -0.038583, -2.329370

149391476.866426, -0.035182, 0.052926, -0.009392, 0.044666, 0.124131, 0.966453, -12.910480, 21.106121, 53.066433, 0.086381, -0.038219, -2.330799

149391476.867472, -0.034142, 0.048223, -0.012782, 0.044666, 0.124131, 0.966453, -12.926394, 21.098644, 53.085091, 0.086855, -0.037895, -2.332257

149391476.868477, -0.040600, 0.037042, -0.012812, 0.044666, 0.108614, 0.997629, -12.939125, 21.092663, 53.100018, 0.086889, -0.037658, -2.332929

149391476.869539, -0.005360, -0.005897, -0.005366, 0.044666, 0.108614, 0.997629, -12.949310, 21.087877, 53.065311, 0.087264, -0.037857, -2.333560

149391476.870539, -0.016661, 0.023424, -0.013307, 0.014889, 0.062065, 0.982041, -12.957458, 21.084049, 53.037544, 0.086600, -0.037187, -2.331639

149391476.871602, -0.025878, 0.041768, -0.016316, 0.014889, 0.062065, 0.982041, -12.963977, 21.080988, 53.015331, 0.085845, -0.036320, -2.329783

149391476.872601, -0.011579, 0.042085, -0.019561, 0.044666, 0.093098, 0.997629, -13.030801, 20.996906, 53.044212, 0.085881, -0.036059, -2.330135

149391476.873652, -0.019109, 0.046581, -0.030212, 0.044666, 0.093098, 0.997629, -13.084260, 20.929640, 53.067314, 0.085835, -0.035724, -2.330672

149391476.874665, -0.026780, 0.040517, -0.040938, 0.014889, 0.093098, 0.997629, -13.127028, 20.875828, 53.085796, 0.085719, -0.034869, -2.330271

149391476.875678, -0.023525, 0.040561, -0.043664, 0.014889, 0.093098, 0.997629, -13.181778, 20.853186, 53.170555, 0.085639, -0.034028, -2.329965

149391476.876740, -0.030206, 0.042099, -0.045137, -0.000000, 0.124131, 0.982041, -13.225578, 20.835072, 53.238361, 0.086141, -0.032870, -2.330369

149391476.877742, -0.031065, 0.034934, -0.046878, -0.000000, 0.124131, 0.982041, -13.260618, 20.820581, 53.292606, 0.086642, -0.031831, -2.330805

149391476.878803, -0.019946, 0.021043, -0.043798, 0.029778, 0.093098, 0.982041, -13.288651, 20.808989, 53.336002, 0.086605, -0.031541, -2.331265

149391476.879815, -0.003978, 0.006546, -0.038690, 0.029778, 0.093098, 0.982041, -13.331613, 20.779306, 53.254097, 0.086736, -0.031416, -2.331700

149391476.880875, 0.006870, -0.010934, -0.049536, 0.014889, 0.093098, 0.982041, -13.365982, 20.755560, 53.188576, 0.086975, -0.031156, -2.331743

149391476.881891, 0.004333, -0.032531, -0.056268, 0.014889, 0.093098, 0.982041, -13.393477, 20.736563, 53.136158, 0.087184, -0.031107, -2.331875

149391476.882934, 0.008727, -0.040218, -0.053289, 0.014889, 0.108614, 0.982041, -13.436010, 20.741774, 53.070900, 0.087751, -0.031150, -2.332587

149391476.883941, 0.004955, -0.037876, -0.045888, 0.014889, 0.108614, 0.982041, -13.470037, 20.745943, 53.018692, 0.088264, -0.031162, -2.333207

149391476.884953, -0.000232, -0.036182, -0.037447, 0.014889, 0.124131, 0.950865, -13.497257, 20.749277, 52.976925, 0.089113, -0.031193, -2.334528

149391476.886008, -0.000227, -0.027048, -0.024101, 0.014889, 0.124131, 0.950865, -13.477962, 20.731537, 53.036808, 0.089940, -0.031153, -2.335700

149391476.887090, 0.000078, -0.023688, -0.016159, 0.014889, 0.062065, 0.982041, -13.462524, 20.717344, 53.084717, 0.089398, -0.031088, -2.334377

149391476.888050, 0.000994, -0.021550, -0.012189, 0.029778, 0.108614, 0.982041, -13.450175, 20.705990, 53.123043, 0.089827, -0.031267, -2.335189

149391476.889098, -0.013977, -0.022591, -0.014922, 0.029778, 0.108614, 0.982041, -13.440296, 20.696907, 53.153702, 0.090096, -0.031468, -2.336028

149391476.890154, -0.016672, -0.027199, -0.015206, -0.000000, 0.093098, 0.966453, -13.452929, 20.587601, 53.131580, 0.090033, -0.031103, -2.335269

149391476.891163, -0.022601, -0.026626, -0.017278, -0.000000, 0.093098, 0.966453, -13.463035, 20.500154, 53.113884, 0.089923, -0.030725, -2.334599

149391476.892166, -0.027507, -0.023674, -0.017512, 0.014889, 0.108614, 0.982041, -13.471120, 20.430199, 53.099728, 0.090065, -0.030631, -2.335108

149391476.893212, -0.016463, -0.023474, -0.018040, 0.014889, 0.108614, 0.982041, -13.457051, 20.394642, 53.111729, 0.090307, -0.030546, -2.335636

149391476.894267, 0.003618, -0.021186, -0.019156, 0.014889, 0.108614, 0.966453, -13.445797, 20.366196, 53.121330, 0.090786, -0.030446, -2.336254

149391476.895280, 0.016399, -0.028813, -0.022639, 0.014889, 0.108614, 0.966453, -13.436793, 20.343439, 53.129009, 0.091382, -0.030412, -2.336903

149391476.896331, 0.007084, -0.019834, -0.026050, 0.014889, 0.093098, 0.966453, -13.429590, 20.386459, 53.205124, 0.091555, -0.030289, -2.336950

149391476.897333, 0.003048, -0.006560, -0.025800, 0.014889, 0.093098, 0.966453, -13.423828, 20.420876, 53.266014, 0.091680, -0.030030, -2.336947

149391476.898393, -0.007183, 0.016602, -0.011204, 0.044666, 0.108614, 0.950865, -13.419218, 20.448408, 53.314728, 0.092037, -0.030196, -2.338562

149391476.899406, -0.010619, 0.041966, 0.000394, 0.044666, 0.108614, 0.950865, -13.394994, 20.409208, 53.237080, 0.092352, -0.030126, -2.340006

149391476.900418, -0.008481, 0.053573, 0.011084, 0.014889, 0.077582, 0.982041, -13.375614, 20.377850, 53.174961, 0.091986, -0.029313, -2.338900

149391476.901480, -0.001426, 0.056631, 0.020718, 0.014889, 0.077582, 0.982041, -13.360110, 20.352762, 53.125267, 0.091694, -0.028468, -2.337707

149391476.902476, 0.001893, 0.047067, 0.033139, 0.014889, 0.077582, 0.982041, -13.347708, 20.332693, 53.085510, 0.091439, -0.027779, -2.336444

149391476.903531, 0.004245, 0.040395, 0.032142, 0.014889, 0.077582, 0.982041, -13.358322, 20.337046, 53.077030, 0.091216, -0.027145, -2.335207

149391476.904543, 0.008043, 0.024295, 0.016814, 0.014889, 0.077582, 0.950865, -13.366814, 20.340527, 53.070244, 0.091091, -0.026693, -2.334284

149391476.905606, 0.007431, 0.004441, 0.009483, 0.014889, 0.077582, 0.950865, -13.373607, 20.343311, 53.064816, 0.090968, -0.026438, -2.333469

149391476.906609, -0.008145, -0.015715, 0.002152, 0.014889, 0.077582, 0.997629, -13.440650, 20.263906, 53.177094, 0.090616, -0.026367, -2.332710

149391476.907655, -0.023719, -0.033122, 0.004901, 0.014889, 0.077582, 0.997629, -13.494285, 20.200382, 53.266918, 0.090108, -0.026484, -2.332036

149391476.908670, -0.038681, -0.042585, 0.017116, 0.014889, 0.124131, 0.997629, -13.537192, 20.149563, 53.338776, 0.090401, -0.026707, -2.333074

149391476.909733, -0.052115, -0.051132, 0.027803, 0.014889, 0.124131, 0.997629, -13.530446, 20.170134, 53.256317, 0.090526, -0.027045, -2.333954

149391476.910744, -0.067990, -0.054181, 0.036962, 0.029778, 0.093098, 0.982041, -13.525049, 20.186590, 53.190350, 0.089923, -0.027676, -2.334146

149391476.911757, -0.064929, -0.059367, 0.039707, 0.029778, 0.093098, 0.982041, -13.520731, 20.199755, 53.137577, 0.089360, -0.028350, -2.334296

149391476.912800, -0.048125, -0.061193, 0.037871, 0.029778, 0.093098, 0.982041, -13.455667, 20.006205, 53.118683, 0.088961, -0.029046, -2.334536

149391476.913814, -0.021856, -0.058743, 0.036950, 0.029778, 0.093098, 0.982041, -13.403617, 19.851364, 53.103565, 0.088846, -0.029684, -2.334855

149391476.914880, 0.002578, -0.055683, 0.029922, 0.029778, 0.108614, 0.966453, -13.361977, 19.727491, 53.091473, 0.089326, -0.030325, -2.335970

149391476.915895, 0.009297, -0.052013, 0.026865, 0.029778, 0.108614, 0.966453, -13.328664, 19.628393, 53.081799, 0.089864, -0.030886, -2.337152

149391476.916899, 0.017236, -0.046815, 0.029611, 0.029778, 0.108614, 0.966453, -13.363623, 19.671564, 53.120708, 0.090467, -0.031380, -2.338277

149391476.917941, 0.012348, -0.035205, 0.028081, 0.044666, 0.093098, 0.997629, -13.391590, 19.706100, 53.151836, 0.090630, -0.032028, -2.339125

149391476.919009, 0.009598, -0.021458, 0.023191, 0.044666, 0.093098, 0.997629, -13.413964, 19.733730, 53.176739, 0.090765, -0.032526, -2.339986

149391476.920021, 0.000130, -0.013516, 0.021967, 0.014889, 0.108614, 0.982041, -13.390791, 19.817059, 53.150013, 0.091152, -0.032335, -2.340368

149391476.921034, -0.007811, -0.000688, 0.027462, 0.014889, 0.108614, 0.982041, -13.372252, 19.883722, 53.128632, 0.091450, -0.032026, -2.340614

149391476.922096, -0.014529, 0.008169, 0.027765, 0.029778, 0.077582, 0.966453, -13.357420, 19.937052, 53.111526, 0.091063, -0.031942, -2.340239

149391476.923095, -0.002006, 0.008779, 0.025013, 0.029778, 0.077582, 0.966453, -13.386628, 19.918491, 53.097843, 0.090816, -0.031854, -2.339947

149391476.924155, -0.000784, 0.008473, 0.025927, 0.029778, 0.077582, 0.982041, -13.409994, 19.903643, 53.086895, 0.090560, -0.031759, -2.339597

149391476.925159, 0.002576, 0.006945, 0.014319, 0.029778, 0.077582, 0.982041, -13.428687, 19.891764, 53.078136, 0.090346, -0.031673, -2.339404

149391476.926221, 0.010516, -0.014739, 0.003934, 0.014889, 0.077582, 0.966453, -13.443642, 19.923077, 53.094456, 0.090245, -0.031506, -2.338821

149391476.927227, 0.007766, -0.033062, -0.009199, 0.014889, 0.077582, 0.966453, -13.455606, 19.948128, 53.107510, 0.090118, -0.031502, -2.338389

149391476.928284, 0.015400, -0.046191, -0.023552, 0.014889, 0.062065, 0.982041, -13.465177, 19.968168, 53.117954, 0.089738, -0.031644, -2.337543

149391476.929284, 0.027615, -0.064510, -0.033017, 0.014889, 0.062065, 0.982041, -13.472834, 19.984201, 53.126308, 0.089479, -0.031930, -2.336804

149391476.930299, 0.036163, -0.081911, -0.047672, 0.014889, 0.077582, 0.982041, -13.437886, 20.037844, 53.156315, 0.089637, -0.032365, -2.336719

149391476.931360, 0.030357, -0.086789, -0.085842, 0.014889, 0.077582, 0.982041, -13.409928, 20.080757, 53.180321, 0.089763, -0.032843, -2.337016

149391476.932368, 0.021802, -0.075174, -0.114846, 0.014889, 0.062065, 0.982041, -13.387562, 20.115088, 53.199524, 0.089474, -0.033144, -2.336971

149391476.933423, 0.012027, -0.062950, -0.098954, 0.014889, 0.062065, 0.982041, -13.328596, 19.999695, 53.144917, 0.089096, -0.033356, -2.336833

149391476.934435, 0.007139, -0.050117, -0.101081, 0.014889, 0.093098, 0.966453, -13.281424, 19.907381, 53.101231, 0.089340, -0.033401, -2.337845

149391476.935497, 0.008666, -0.046447, -0.122143, 0.014889, 0.093098, 0.966453, -13.243686, 19.833530, 53.066280, 0.089607, -0.033408, -2.339126

149391476.936500, 0.020575, -0.041555, -0.149005, 0.044666, 0.077582, 0.997629, -13.234032, 19.733633, 53.131618, 0.089618, -0.033906, -2.341026

149391476.937545, 0.022406, -0.030557, -0.172811, 0.044666, 0.077582, 0.997629, -13.226308, 19.653715, 53.183887, 0.089666, -0.034270, -2.343233

149391476.938548, 0.009882, -0.011008, -0.195698, 0.014889, 0.077582, 0.982041, -13.220129, 19.589781, 53.225704, 0.089606, -0.033826, -2.344537

149391476.939608, 0.016294, 0.007012, -0.204839, 0.014889, 0.077582, 0.982041, -13.215186, 19.538633, 53.259155, 0.089625, -0.033192, -2.346035

149391476.940623, 0.024233, 0.023198, -0.210009, 0.044666, 0.093098, 0.950865, -13.252304, 19.579348, 53.309242, 0.090086, -0.033050, -2.349303

149391476.941636, 0.030952, 0.036026, -0.216118, 0.044666, 0.093098, 0.950865, -13.281999, 19.611919, 53.349312, 0.090604, -0.032778, -2.352549

149391476.942679, 0.019041, 0.042440, -0.242691, 0.044666, 0.093098, 0.950865, -13.305755, 19.637978, 53.381367, 0.091010, -0.032403, -2.356058

149391476.943737, 0.004991, 0.045494, -0.261933, 0.014889, 0.093098, 0.950865, -13.324759, 19.597599, 53.383686, 0.091278, -0.031349, -2.358639

149391476.944749, -0.017611, 0.055879, -0.250326, 0.014889, 0.093098, 0.950865, -13.339963, 19.565296, 53.385540, 0.091304, -0.030256, -2.360961

149391476.945762, -0.041130, 0.061987, -0.220394, 0.014889, 0.077582, 0.982041, -13.352126, 19.539454, 53.387024, 0.090703, -0.029146, -2.362244

149391476.946824, -0.058533, 0.054651, -0.178531, 0.014889, 0.077582, 0.982041, -13.485075, 19.457556, 53.341564, 0.089903, -0.028135, -2.363322

149391476.947821, -0.068300, 0.018914, -0.163853, -0.000000, 0.077582, 0.997629, -13.591434, 19.392036, 53.305199, 0.089016, -0.027253, -2.363638

149391476.948887, -0.045388, -0.025371, -0.177884, -0.000000, 0.077582, 0.997629, -13.676520, 19.339622, 53.276104, 0.088350, -0.026814, -2.364337

149391476.949899, -0.009956, -0.066903, -0.187944, -0.000000, 0.046549, 0.966453, -13.703518, 19.195650, 53.346127, 0.087470, -0.026816, -2.364171

149391476.950910, 0.024555, -0.077891, -0.165630, -0.000000, 0.046549, 0.966453, -13.725116, 19.080471, 53.402142, 0.086946, -0.026944, -2.363878

149391476.951975, 0.026690, -0.062612, -0.151258, -0.000000, 0.062065, 0.966453, -13.742393, 18.988329, 53.446957, 0.086794, -0.026936, -2.364132

149391476.952971, 0.023328, -0.036647, -0.144218, -0.000000, 0.062065, 0.966453, -13.756216, 18.914616, 53.482807, 0.086589, -0.026646, -2.364243

149391476.954025, 0.019050, -0.016792, -0.128628, -0.000000, 0.062065, 0.966453, -13.767274, 18.916868, 53.488163, 0.086355, -0.026186, -2.364265

149391476.955039, 0.013245, -0.000298, -0.102960, -0.000000, 0.062065, 0.966453, -13.776120, 18.918671, 53.492447, 0.086052, -0.025592, -2.363972

149391476.956111, -0.001110, 0.004588, -0.084626, 0.014889, 0.062065, 0.966453, -13.783197, 18.920113, 53.495872, 0.085621, -0.025271, -2.364143

149391476.957126, -0.021877, 0.023522, -0.069347, 0.014889, 0.062065, 0.966453, -13.850468, 18.798817, 53.451965, 0.084987, -0.024787, -2.364218

149391476.958122, -0.044474, 0.033904, -0.042770, 0.014889, 0.062065, 0.982041, -13.904284, 18.701780, 53.416840, 0.084123, -0.024235, -2.364066

149391476.959188, -0.063099, 0.051308, 0.000296, 0.014889, 0.062065, 0.982041, -13.947337, 18.624151, 53.388741, 0.083041, -0.023523, -2.363559

149391476.960201, -0.057290, 0.070543, 0.048244, -0.000000, 0.062065, 0.966453, -14.022852, 18.643681, 53.459557, 0.082071, -0.022403, -2.362081

149391476.961257, -0.055146, 0.076032, 0.061982, -0.000000, 0.062065, 0.966453, -14.083264, 18.659304, 53.516209, 0.081117, -0.021231, -2.360499

149391476.962256, -0.039565, 0.066252, 0.068694, -0.000000, 0.077582, 0.982041, -14.131594, 18.671803, 53.561531, 0.080666, -0.020214, -2.359504

149391476.963304, -0.046279, 0.047615, 0.090371, -0.000000, 0.077582, 0.982041, -14.170258, 18.620577, 53.574467, 0.080134, -0.019397, -2.358352

149391476.964314, -0.051466, 0.031729, 0.099218, -0.000000, 0.062065, 0.982041, -14.180653, 18.579597, 53.584816, 0.079258, -0.018780, -2.356633

149391476.965377, -0.072534, 0.003018, 0.085159, -0.000000, 0.062065, 0.982041, -14.188969, 18.546814, 53.593094, 0.078157, -0.018448, -2.355092

149391476.966389, -0.071617, -0.022333, 0.047591, 0.029778, 0.093098, 0.950865, -14.195621, 18.520586, 53.599716, 0.077815, -0.018978, -2.356506

149391476.967435, -0.063059, -0.024163, 0.028345, 0.029778, 0.093098, 0.950865, -14.200944, 18.377155, 53.558365, 0.077548, -0.019510, -2.358179

149391476.968439, -0.056333, -0.009195, 0.023761, 0.014889, 0.077582, 0.982041, -14.205201, 18.262411, 53.525284, 0.077016, -0.019531, -2.358631

149391476.969499, -0.042279, 0.013100, 0.022537, 0.014889, 0.077582, 0.982041, -14.208608, 18.170616, 53.498821, 0.076610, -0.019326, -2.359122

149391476.970515, 0.001703, 0.030201, 0.047883, 0.014889, 0.077582, 0.982041, -14.252405, 18.199221, 53.500973, 0.076663, -0.018980, -2.359357

149391476.971527, 0.027662, 0.044551, 0.039022, 0.014889, 0.077582, 0.982041, -14.287443, 18.222103, 53.502693, 0.076975, -0.018492, -2.359673

149391476.972573, 0.023078, 0.067757, 0.032604, 0.014889, 0.077582, 0.982041, -14.315474, 18.240410, 53.504070, 0.077242, -0.017758, -2.360021

149391476.973627, 0.020022, 0.085463, 0.041152, 0.014889, 0.062065, 0.982041, -14.358434, 18.193830, 53.505173, 0.077158, -0.016857, -2.359718

149391476.974640, 0.028876, 0.084233, 0.050310, 0.014889, 0.062065, 0.982041, -14.392802, 18.156567, 53.506054, 0.077155, -0.016025, -2.359400

149391476.975643, 0.025819, 0.079643, 0.049388, 0.044666, 0.077582, 0.982041, -14.420297, 18.126757, 53.506760, 0.077406, -0.015869, -2.360754

149391476.976703, 0.014211, 0.077191, 0.048772, 0.044666, 0.077582, 0.982041, -14.442292, 18.102909, 53.507324, 0.077545, -0.015699, -2.362089

149391476.977702, 0.005048, 0.083291, 0.050905, 0.014889, 0.093098, 0.997629, -14.418817, 18.104239, 53.437805, 0.077896, -0.014918, -2.362943

149391476.978766, -0.000755, 0.084199, 0.046624, 0.014889, 0.093098, 0.997629, -14.400036, 18.105301, 53.382191, 0.078182, -0.014090, -2.363770

149391476.979778, 0.006269, 0.075333, 0.037151, 0.014889, 0.077582, 0.966453, -14.385012, 18.106152, 53.337700, 0.078276, -0.013400, -2.364186

149391476.980841, 0.027036, 0.060666, 0.044783, 0.014889, 0.077582, 0.966453, -14.475674, 18.147648, 53.372078, 0.078587, -0.012846, -2.364537

149391476.981853, 0.024284, 0.046917, 0.046916, 0.014889, 0.077582, 0.997629, -14.548203, 18.180845, 53.399578, 0.078801, -0.012459, -2.364805

149391476.982897, 0.031611, 0.023396, 0.047216, 0.014889, 0.077582, 0.997629, -14.606227, 18.207403, 53.421577, 0.079093, -0.012306, -2.365088

149391476.983904, 0.027638, 0.007207, 0.049044, -0.000000, 0.093098, 0.982041, -14.591037, 18.249058, 53.415855, 0.079674, -0.012034, -2.365480

149391476.984916, 0.015419, -0.001650, 0.048733, -0.000000, 0.093098, 0.982041, -14.578885, 18.282381, 53.411278, 0.080123, -0.011854, -2.365837

149391476.985979, -0.000769, -0.002872, 0.050560, -0.000000, 0.062065, 0.997629, -14.569163, 18.309040, 53.407616, 0.079746, -0.011693, -2.364857

149391476.986991, -0.004739, -0.003482, 0.048722, -0.000000, 0.062065, 0.997629, -14.499777, 18.228327, 53.428009, 0.079339, -0.011536, -2.363947

149391476.988025, -0.009625, -0.012033, 0.037112, -0.000000, 0.077582, 0.982041, -14.444268, 18.163755, 53.444324, 0.079228, -0.011456, -2.363812

149391476.989042, -0.009624, -0.022721, 0.031611, -0.000000, 0.077582, 0.982041, -14.399861, 18.112099, 53.457375, 0.079123, -0.011478, -2.363755

149391476.990105, -0.006874, -0.030048, 0.022140, -0.000000, 0.062065, 0.997629, -14.364335, 18.070774, 53.467815, 0.078707, -0.011582, -2.363155

149391476.991115, -0.020311, -0.031877, -0.005653, -0.000000, 0.062065, 0.997629, -14.459132, 18.058123, 53.476170, 0.078173, -0.011663, -2.362928

149391476.992127, -0.046574, -0.027598, -0.034055, 0.014889, 0.046549, 1.013217, -14.534970, 18.048000, 53.482853, 0.077071, -0.011974, -2.362993

149391476.993180, -0.055731, -0.019655, -0.040465, 0.014889, 0.046549, 1.013217, -14.595641, 18.039904, 53.488197, 0.075878, -0.012203, -2.363177

149391476.994193, -0.039844, -0.026066, -0.021526, 0.014889, 0.046549, 0.997629, -14.644177, 17.972200, 53.562447, 0.074901, -0.012501, -2.363268

149391476.995249, -0.026708, -0.030950, -0.003505, 0.014889, 0.046549, 0.997629, -14.683006, 17.918039, 53.621845, 0.074060, -0.012867, -2.363248

149391476.996255, -0.008992, -0.032779, 0.009628, 0.014889, 0.031033, 0.966453, -14.714069, 17.874710, 53.669365, 0.073132, -0.013257, -2.362660

149391476.997308, 0.010555, -0.032470, 0.016345, 0.014889, 0.031033, 0.966453, -14.656775, 17.860455, 53.660732, 0.072419, -0.013657, -2.361984

149391476.998357, 0.023991, -0.035521, 0.023979, 0.014889, 0.062065, 0.982041, -14.610939, 17.849051, 53.653828, 0.072476, -0.014066, -2.362323

149391476.999368, 0.037732, -0.039182, 0.031306, 0.014889, 0.062065, 0.982041, -14.574270, 17.839928, 53.648304, 0.072659, -0.014494, -2.362575

149391477.000381, 0.049028, -0.036735, 0.038938, 0.014889, 0.062065, 0.982041, -14.544935, 17.791813, 53.643887, 0.072949, -0.014896, -2.362759

149391477.001443, 0.050550, -0.035204, 0.042293, -0.000000, 0.062065, 0.950865, -14.562540, 17.753321, 53.640350, 0.073315, -0.014995, -2.362451

149391477.002441, 0.046879, -0.034589, 0.043815, -0.000000, 0.062065, 0.950865, -14.576624, 17.722527, 53.637524, 0.073605, -0.015064, -2.362190

149391477.003494, 0.045653, -0.034280, 0.040757, -0.000000, 0.062065, 0.982041, -14.587891, 17.697891, 53.635262, 0.073861, -0.015146, -2.361889

149391477.004506, 0.054505, -0.046187, 0.039531, -0.000000, 0.062065, 0.982041, -14.596904, 17.759815, 53.656773, 0.074182, -0.015329, -2.361593

149391477.005569, 0.059691, -0.048931, 0.036473, -0.000000, 0.062065, 0.966453, -14.604115, 17.809355, 53.673985, 0.074599, -0.015558, -2.361330

149391477.006581, 0.051439, -0.060531, 0.030666, -0.000000, 0.062065, 0.966453, -14.609883, 17.848988, 53.687752, 0.074896, -0.015869, -2.361131

149391477.007627, 0.056320, -0.072741, 0.020890, -0.000000, 0.046549, 0.950865, -14.593962, 17.819468, 53.675442, 0.074947, -0.016317, -2.360482

149391477.008632, 0.041960, -0.071206, 0.006229, -0.000000, 0.046549, 0.950865, -14.581224, 17.795853, 53.665596, 0.074836, -0.016701, -2.360000

149391477.009694, 0.034626, -0.063258, 0.001647, 0.014889, 0.062065, 0.966453, -14.571034, 17.776960, 53.657719, 0.074983, -0.017329, -2.360702

149391477.010707, 0.030347, -0.058976, -0.009958, 0.014889, 0.062065, 0.966453, -14.501274, 17.823071, 53.651417, 0.075071, -0.017863, -2.361422

149391477.011714, 0.020571, -0.055305, -0.020341, -0.000000, 0.062065, 0.982041, -14.445466, 17.859959, 53.646374, 0.075038, -0.018035, -2.361559

149391477.012756, 0.010796, -0.044305, -0.031333, -0.000000, 0.062065, 0.982041, -14.400819, 17.889469, 53.642342, 0.074915, -0.018103, -2.361755

149391477.013807, 0.011711, -0.042468, -0.040797, -0.000000, 0.046549, 0.966453, -14.365102, 17.913078, 53.639114, 0.074501, -0.018156, -2.361453

149391477.014806, 0.008045, -0.043990, -0.046901, -0.000000, 0.046549, 0.966453, -14.377601, 17.809517, 53.659855, 0.074056, -0.018197, -2.361272

149391477.015870, 0.008960, -0.042764, -0.044758, -0.000000, 0.046549, 0.997629, -14.387600, 17.726667, 53.676449, 0.073603, -0.018252, -2.361111

149391477.016883, 0.006516, -0.041232, -0.045364, -0.000000, 0.046549, 0.997629, -14.395599, 17.660387, 53.689724, 0.073132, -0.018270, -2.360984

149391477.017926, 0.011707, -0.038785, -0.044138, -0.000000, 0.046549, 0.966453, -14.360926, 17.750221, 53.630371, 0.072755, -0.018275, -2.360829

149391477.018933, 0.005903, -0.044583, -0.044744, -0.000000, 0.046549, 0.966453, -14.333187, 17.822088, 53.582890, 0.072323, -0.018325, -2.360601

149391477.019996, 0.000405, -0.047633, -0.045961, -0.000000, 0.077582, 0.982041, -14.310996, 17.879581, 53.544903, 0.072470, -0.018420, -2.361532

149391477.021010, 0.000100, -0.053430, -0.052980, -0.000000, 0.077582, 0.982041, -14.334316, 17.843943, 53.491192, 0.072613, -0.018544, -2.362534

149391477.022022, -0.002954, -0.053425, -0.055723, -0.000000, 0.062065, 0.982041, -14.352972, 17.815432, 53.448223, 0.072403, -0.018663, -2.362956

149391477.023067, -0.002038, -0.061665, -0.061215, -0.000000, 0.062065, 0.982041, -14.367897, 17.792624, 53.413849, 0.072208, -0.018875, -2.363476

149391477.024085, 0.004681, -0.064712, -0.070370, 0.029778, 0.046549, 0.966453, -14.379837, 17.835602, 53.572941, 0.071785, -0.019701, -2.364596

149391477.025147, 0.009873, -0.061346, -0.067920, 0.029778, 0.046549, 0.966453, -14.389389, 17.869984, 53.700214, 0.071429, -0.020505, -2.365687

149391477.026159, 0.005902, -0.052483, -0.067607, -0.000000, 0.062065, 0.966453, -14.397030, 17.897490, 53.802032, 0.071354, -0.020567, -2.366192

149391477.027167, 0.000404, -0.054310, -0.061492, -0.000000, 0.062065, 0.966453, -14.403143, 17.919495, 53.883488, 0.071224, -0.020649, -2.366617

149391477.028209, -0.005399, -0.054610, -0.057821, -0.000000, 0.062065, 0.982041, -14.346424, 17.937099, 53.832031, 0.071017, -0.020752, -2.366925

149391477.029260, -0.005093, -0.061323, -0.063312, -0.000000, 0.062065, 0.982041, -14.301049, 17.951183, 53.790867, 0.070817, -0.020922, -2.367250

149391477.030264, -0.003871, -0.062843, -0.071246, -0.000000, 0.062065, 0.982041, -14.264750, 17.962450, 53.757935, 0.070636, -0.021072, -2.367582

149391477.031322, -0.008146, -0.067723, -0.073376, 0.014889, 0.062065, 0.966453, -14.276782, 17.849014, 53.708263, 0.070440, -0.021604, -2.368669

149391477.032321, -0.017918, -0.071075, -0.069093, 0.014889, 0.062065, 0.966453, -14.286408, 17.758265, 53.668526, 0.070155, -0.022125, -2.369716

149391477.033372, -0.035019, -0.066487, -0.052899, 0.014889, 0.077582, 0.982041, -14.294109, 17.685665, 53.636738, 0.069985, -0.022634, -2.371239

149391477.034385, -0.041428, -0.066174, -0.040677, 0.014889, 0.077582, 0.982041, -14.259197, 17.647995, 53.634632, 0.069764, -0.023115, -2.372593

149391477.035445, -0.038370, -0.069832, -0.033038, 0.014889, 0.062065, 0.982041, -14.231268, 17.617859, 53.632946, 0.069243, -0.023654, -2.373243

149391477.036742, -0.031650, -0.069832, -0.029678, 0.014889, 0.000000, 0.950865, -14.208924, 17.593750, 53.631599, 0.067459, -0.024418, -2.371776

149391477.037522, -0.037454, -0.069832, -0.028151, -0.000000, 0.046549, 0.950865, -14.191050, 17.472422, 53.653843, 0.066799, -0.024455, -2.371272

149391477.038522, -0.016377, -0.065855, -0.015627, -0.000000, 0.046549, 0.950865, -14.176749, 17.375359, 53.671638, 0.066277, -0.024606, -2.370779

149391477.039570, -0.007213, -0.061267, -0.004325, -0.000000, 0.062065, 0.966453, -14.165309, 17.297709, 53.685875, 0.066162, -0.024739, -2.370818

149391477.040569, -0.008434, -0.057290, 0.002699, -0.000000, 0.062065, 0.966453, -14.156157, 17.235588, 53.697266, 0.066039, -0.024806, -2.370821

149391477.041621, -0.005685, -0.061254, 0.003615, -0.000000, 0.046549, 0.982041, -14.128300, 17.247116, 53.683056, 0.065598, -0.024948, -2.370141

149391477.042669, -0.003241, -0.062164, 0.005447, -0.000000, 0.046549, 0.982041, -14.106013, 17.256338, 53.671688, 0.065191, -0.025096, -2.369434

149391477.043674, 0.005005, -0.064601, 0.005752, -0.000000, 0.046549, 0.997629, -14.088184, 17.263716, 53.662594, 0.064860, -0.025239, -2.368694

149391477.044736, 0.003478, -0.064594, 0.003919, -0.000000, 0.046549, 0.997629, -14.094458, 17.249210, 53.701962, 0.064522, -0.025415, -2.368003

149391477.045737, -0.001104, -0.072222, 0.002697, -0.000000, 0.031033, 0.997629, -14.099476, 17.237606, 53.733456, 0.063828, -0.025635, -2.366795

149391477.046749, -0.000798, -0.071604, -0.000663, -0.000000, 0.031033, 0.997629, -14.103491, 17.228323, 53.758652, 0.063151, -0.025850, -2.365652

149391477.047798, 0.008670, -0.073742, -0.000357, 0.044666, 0.062065, 0.982041, -14.127239, 17.261713, 53.802132, 0.063226, -0.026996, -2.367325

149391477.048818, 0.019969, -0.079842, 0.003002, 0.044666, 0.062065, 0.982041, -14.146237, 17.288424, 53.836918, 0.063411, -0.028161, -2.368928

149391477.049887, 0.028521, -0.068846, 0.009722, -0.000000, 0.062065, 0.950865, -14.161436, 17.309793, 53.864746, 0.063744, -0.028325, -2.368902

149391477.050900, 0.028824, -0.059982, 0.011858, -0.000000, 0.062065, 0.950865, -14.173595, 17.326889, 53.887009, 0.064057, -0.028360, -2.368850

149391477.051912, 0.024853, -0.045933, 0.011553, 0.014889, 0.062065, 0.997629, -14.080641, 17.095667, 53.881496, 0.064266, -0.028552, -2.369335

149391477.052960, 0.022102, -0.035850, 0.008803, 0.014889, 0.062065, 0.997629, -14.006277, 16.910690, 53.877087, 0.064453, -0.028651, -2.369914

149391477.053975, 0.015381, -0.022408, 0.004221, -0.000000, 0.062065, 0.982041, -13.946786, 16.762709, 53.873558, 0.064581, -0.028304, -2.370063

149391477.055038, 0.020876, -0.002249, 0.008191, -0.000000, 0.062065, 0.982041, -13.878657, 16.827997, 53.870735, 0.064768, -0.027766, -2.370055

149391477.056051, 0.031869, 0.013326, 0.011550, 0.014889, 0.046549, 0.966453, -13.824154, 16.880228, 53.868477, 0.064748, -0.027394, -2.369925

149391477.057064, 0.035835, 0.005995, 0.019489, 0.014889, 0.046549, 0.966453, -13.780552, 16.922012, 53.866669, 0.064766, -0.027108, -2.369664

149391477.058108, 0.037359, -0.006221, 0.029260, 0.014889, 0.046549, 0.966453, -13.848351, 17.037071, 53.865223, 0.064807, -0.026957, -2.369278

149391477.059163, 0.035522, -0.015383, 0.031700, 0.014889, 0.046549, 0.982041, -13.902591, 17.129120, 53.864067, 0.064816, -0.026902, -2.368812

149391477.060177, 0.043459, -0.016603, 0.038721, 0.014889, 0.046549, 0.982041, -13.945983, 17.202759, 53.863140, 0.064888, -0.026858, -2.368278

149391477.061184, 0.057197, -0.022098, 0.048795, 0.014889, 0.062065, 0.982041, -13.919087, 17.200445, 53.862400, 0.065407, -0.026872, -2.368256

149391477.062233, 0.078875, -0.018431, 0.057341, 0.014889, 0.062065, 0.982041, -13.897572, 17.198593, 53.861809, 0.066159, -0.026864, -2.368111

149391477.063279, 0.103920, -0.015988, 0.064977, 0.044666, 0.031033, 1.013217, -13.880359, 17.197111, 53.861336, 0.066494, -0.027412, -2.367677

149391477.064289, 0.151857, 0.000811, 0.072605, 0.044666, 0.031033, 1.013217, -13.866589, 17.195927, 53.860958, 0.067258, -0.027780, -2.367181

149391477.065302, 0.206224, 0.038990, 0.060082, 0.089333, 0.046549, 0.966453, -13.876108, 17.297020, 53.814007, 0.068835, -0.028696, -2.368812

149391477.066364, 0.285026, 0.092136, 0.046643, 0.089333, 0.046549, 0.966453, -13.883724, 17.377893, 53.776447, 0.071306, -0.029014, -2.370430

149391477.067367, 0.383681, 0.169105, 0.047559, 0.431774, 0.170680, 1.137920, -13.889816, 17.442593, 53.746399, 0.074955, -0.034207, -2.379332

149391477.068427, 0.386430, 0.295859, 0.064664, 0.431774, 0.170680, 1.137920, -13.915227, 17.657618, 53.675713, 0.078831, -0.037888, -2.387630

149391477.069440, 0.363522, 0.399095, 0.080241, 1.086880, 0.263778, 1.215860, -13.935555, 17.829638, 53.619164, 0.080666, -0.047883, -2.397487

149391477.070453, 0.364133, 0.270203, 0.138884, 1.086880, 0.263778, 1.215860, -13.951818, 17.967253, 53.573925, 0.082591, -0.058999, -2.406616

149391477.071515, 0.476227, 0.075337, 0.418049, 1.384655, 0.031033, 1.044393, -14.026438, 18.179386, 53.491085, 0.082697, -0.075429, -2.410386

149391477.072514, 0.815562, -0.005297, 0.809919, 1.384655, 0.031033, 1.044393, -14.086133, 18.349092, 53.424812, 0.085597, -0.092681, -2.410496

