Recommendet Poll Interval: 4mS
Time, gyroX, gyroY, gyroZ, accelX, accelY, accelZ, magX, magY, magZ, phi, theta, psi
149329461.236820, 0.005958, 0.000874, 0.001372, 0.016000, -0.032000, -1.024000, -3.581818, -2.306123, -6.890910, -3.110353, -0.015616, -2.626305
149329461.237675, 0.007028, 0.001453, -0.000450, 0.016000, -0.032000, -1.024000, -6.447273, -4.151021, -12.403637, -3.110293, -0.015629, -2.626301
149329461.238569, 0.002395, 0.000526, -0.000441, -0.000000, -0.032000, -1.040000, -8.739636, -5.626939, -16.813820, -3.110285, -0.015321, -2.626026
149329461.239629, 0.000850, -0.001578, 0.000465, -0.000000, -0.032000, -1.040000, -10.537164, -6.828082, -20.341965, -3.110289, -0.014998, -2.625706
149329461.240650, 0.000239, -0.004327, 0.001993, 0.016000, -0.016000, -1.088000, -11.975185, -7.788996, -23.164482, -3.110618, -0.014953, -2.625165
149329461.241681, -0.001261, -0.001246, 0.001054, 0.016000, -0.016000, -1.088000, -13.125603, -8.557727, -25.422495, -3.110956, -0.014940, -2.624606
149329461.242709, 0.001457, -0.002416, 0.002825, 0.016000, -0.016000, -1.040000, -14.064118, -9.233936, -27.247087, -3.111246, -0.014928, -2.624040
149329461.243733, 0.002024, -0.000870, 0.001570, 0.016000, -0.016000, -1.040000, -14.814931, -9.774904, -28.706762, -3.111525, -0.014932, -2.623427
149329461.244755, -0.004597, 0.000942, -0.001154, 0.016000, -0.032000, -1.008000, -15.415582, -10.207679, -29.874502, -3.111537, -0.014960, -2.623233
149329461.245777, -0.000613, -0.000871, -0.002326, 0.016000, -0.032000, -1.008000, -15.841557, -10.451858, -30.845057, -3.111510, -0.014970, -2.623071
149329461.246843, 0.003885, -0.002946, 0.000713, 0.016000, -0.032000, -1.040000, -16.182337, -10.647201, -31.621500, -3.111456, -0.014947, -2.622936
149329461.247864, 0.007391, -0.001987, 0.003987, 0.016000, -0.032000, -1.040000, -16.454960, -10.803474, -32.242653, -3.111369, -0.014935, -2.622860
149329461.248885, -0.001734, 0.002540, -0.000283, 0.016000, -0.032000, -1.040000, -16.745787, -11.050942, -32.648666, -3.111376, -0.014969, -2.622690
149329461.249904, -0.001997, -0.002597, -0.003566, 0.048000, -0.032000, -1.040000, -16.978447, -11.248918, -32.973480, -3.111390, -0.015567, -2.622927
149329461.250974, -0.000161, 0.000149, -0.000202, 0.048000, -0.032000, -1.040000, -17.164576, -11.407297, -33.233330, -3.111384, -0.016179, -2.623161
149329461.251994, 0.004029, -0.001648, 0.000699, 0.032000, -0.016000, -1.040000, -17.313478, -11.534001, -33.441208, -3.111636, -0.016457, -2.622718
149329461.253017, 0.004841, -0.004604, 0.002778, 0.032000, -0.016000, -1.040000, -17.396238, -11.594548, -33.662056, -3.111876, -0.016699, -2.622301
149329461.254042, 0.000553, -0.001816, 0.001523, 0.016000, -0.016000, -1.040000, -17.462446, -11.642985, -33.838737, -3.112157, -0.016659, -2.621625
149329461.255067, 0.000242, -0.001179, 0.000893, 0.016000, -0.016000, -1.040000, -17.515411, -11.681735, -33.980080, -3.112436, -0.016626, -2.620954
149329461.256089, 0.000536, -0.002052, 0.000575, -0.000000, -0.032000, -1.024000, -17.557783, -11.712735, -34.111336, -3.112393, -0.016273, -2.620475
149329461.257111, 0.002917, -0.000214, 0.000563, -0.000000, -0.032000, -1.024000, -17.591681, -11.737535, -34.216343, -3.112326, -0.015945, -2.620005
149329461.258179, 0.000463, 0.000986, 0.000551, 0.016000, -0.048000, -1.024000, -17.618799, -11.757376, -34.300346, -3.111970, -0.015950, -2.620259
149329461.259204, -0.000742, -0.000829, 0.000241, 0.016000, -0.048000, -1.024000, -17.658676, -11.773248, -34.294823, -3.111633, -0.015937, -2.620509
149329461.260223, 0.000170, 0.001282, 0.002927, 0.016000, -0.048000, -1.040000, -17.690577, -11.785945, -34.290405, -3.111308, -0.015939, -2.620761
149329461.261243, -0.001627, 0.004245, -0.000424, 0.016000, -0.048000, -1.040000, -17.716097, -11.796103, -34.286869, -3.111007, -0.015972, -2.620979
149329461.262265, -0.003088, 0.001166, 0.001678, -0.000000, -0.032000, -1.040000, -17.736513, -11.804229, -34.284042, -3.111038, -0.015664, -2.620515
149329461.263332, -0.001229, -0.000354, 0.001344, -0.000000, -0.032000, -1.040000, -17.752848, -11.892363, -34.299961, -3.111051, -0.015346, -2.619994
149329461.264352, -0.001502, -0.001842, 0.000119, 0.016000, -0.016000, -1.040000, -17.765915, -11.962870, -34.312695, -3.111369, -0.015334, -2.619255
149329461.265373, -0.004162, -0.003597, 0.000715, 0.016000, -0.016000, -1.040000, -17.776369, -12.019276, -34.322884, -3.111707, -0.015304, -2.618497
149329461.266397, 0.000112, -0.001428, -0.000197, 0.016000, -0.032000, -1.072000, -17.784731, -11.962359, -34.331036, -3.111707, -0.015282, -2.618186
149329461.267419, -0.006468, -0.001996, -0.000492, 0.016000, -0.032000, -1.072000, -17.791422, -11.916826, -34.337555, -3.111773, -0.015255, -2.617919
149329461.268441, 0.002695, -0.001080, -0.002019, 0.016000, -0.016000, -1.024000, -17.796774, -11.880400, -34.342770, -3.112030, -0.015257, -2.617291
149329461.269509, 0.005030, 0.001634, -0.000781, 0.016000, -0.016000, -1.024000, -17.801056, -11.810442, -34.383308, -3.112256, -0.015285, -2.616748
149329461.270530, 0.005821, -0.002885, -0.000764, -0.000000, -0.032000, -1.040000, -17.804482, -11.754477, -34.415737, -3.112172, -0.014951, -2.616422
149329461.271550, -0.000282, -0.002825, 0.002840, -0.000000, -0.032000, -1.040000, -17.807222, -11.709703, -34.441681, -3.112149, -0.014622, -2.616177
149329461.272569, 0.004508, -0.000373, 0.001584, -0.000000, -0.032000, -1.008000, -17.773050, -11.735109, -34.462437, -3.112061, -0.014325, -2.615916
149329461.273638, 0.001423, -0.000664, -0.000841, -0.000000, -0.032000, -1.008000, -17.745712, -11.755434, -34.479042, -3.112004, -0.014032, -2.615606
149329461.274666, -0.001298, 0.000845, -0.000226, 0.032000, -0.016000, -1.024000, -17.723843, -11.771694, -34.492325, -3.112294, -0.014386, -2.615355
149329461.275694, 0.003813, 0.000528, -0.000221, 0.032000, -0.016000, -1.024000, -17.706347, -11.784702, -34.502953, -3.112527, -0.014730, -2.615091
149329461.276720, -0.000752, -0.003669, 0.000382, 0.032000, -0.016000, -1.024000, -17.674168, -11.795109, -34.511452, -3.112801, -0.015025, -2.614814
149329461.277743, 0.003748, -0.003891, -0.002616, 0.016000, -0.016000, -1.008000, -17.648426, -11.803434, -34.518253, -3.113022, -0.015007, -2.614244
149329461.278764, 0.003370, -0.000221, 0.000130, 0.016000, -0.016000, -1.008000, -17.627832, -11.810095, -34.523693, -3.113241, -0.015026, -2.613700
149329461.279791, -0.000295, -0.001748, 0.001046, 0.016000, -0.032000, -1.056000, -17.629539, -11.795014, -34.491680, -3.113206, -0.015010, -2.613580
149329461.280813, -0.004176, 0.002774, 0.000127, 0.016000, -0.032000, -1.056000, -17.630905, -11.782950, -34.466072, -3.113209, -0.015040, -2.613464
149329461.281882, -0.002892, 0.000024, -0.001670, 0.016000, -0.032000, -1.040000, -17.631996, -11.773299, -34.445583, -3.113193, -0.015048, -2.613357
149329461.282871, 0.002252, -0.000574, -0.000139, 0.016000, -0.032000, -1.040000, -17.705597, -11.806395, -34.447376, -3.113124, -0.015048, -2.613275
149329461.283942, -0.002280, -0.001160, -0.004322, 0.016000, -0.016000, -1.040000, -17.764477, -11.832870, -34.448811, -3.113410, -0.015047, -2.612728
149329461.284965, -0.002830, -0.002930, -0.000344, 0.016000, -0.016000, -1.040000, -17.811581, -11.854052, -34.449959, -3.113694, -0.015028, -2.612240
149329461.285983, -0.000977, -0.000775, -0.000337, -0.000000, -0.048000, -1.040000, -17.776537, -11.850588, -34.469059, -3.113339, -0.014721, -2.612367
149329461.287007, 0.002333, -0.001058, 0.001165, -0.000000, -0.048000, -1.040000, -17.748503, -11.847817, -34.484337, -3.112957, -0.014417, -2.612495
149329461.288028, 0.001686, -0.001634, -0.002149, -0.000000, -0.032000, -1.056000, -17.726074, -11.845601, -34.496559, -3.112910, -0.014112, -2.612115
149329461.289096, 0.003145, -0.002496, -0.003299, -0.000000, -0.032000, -1.056000, -17.708132, -11.843828, -34.506340, -3.112848, -0.013805, -2.611722
149329461.290117, 0.005172, -0.002444, -0.000539, -0.000000, -0.016000, -1.040000, -17.766506, -11.903634, -34.495983, -3.113069, -0.013510, -2.610924
149329461.291138, 0.006259, 0.000598, -0.000229, -0.000000, -0.016000, -1.040000, -17.813206, -11.951479, -34.487698, -3.113274, -0.013251, -2.610132
149329461.292148, 0.002540, -0.000312, -0.003214, 0.016000, -0.032000, -1.040000, -17.850565, -11.989755, -34.481068, -3.113200, -0.013291, -2.610007
149329461.293175, 0.004280, -0.001800, 0.000143, 0.016000, -0.032000, -1.040000, -17.771360, -11.959150, -34.493946, -3.113110, -0.013314, -2.609905
149329461.294204, 0.001499, -0.001762, 0.002233, -0.000000, -0.016000, -1.040000, -17.707998, -11.934668, -34.504250, -3.113362, -0.013034, -2.609117
149329461.295274, -0.006307, -0.000828, 0.001887, -0.000000, -0.016000, -1.040000, -17.657309, -11.915081, -34.512489, -3.113690, -0.012769, -2.608332
149329461.296297, -0.003483, -0.003801, 0.001548, 0.016000, -0.048000, -1.040000, -17.725847, -11.960636, -34.537266, -3.113361, -0.012786, -2.608695
149329461.297320, 0.000776, -0.003123, 0.000320, 0.016000, -0.048000, -1.040000, -17.780678, -11.997081, -34.557087, -3.112996, -0.012809, -2.609034
149329461.298340, -0.002828, -0.000366, 0.000014, -0.000000, -0.032000, -1.040000, -17.824543, -12.026237, -34.572941, -3.112983, -0.012549, -2.608662
149329461.299363, -0.005160, -0.000358, -0.000285, -0.000000, -0.032000, -1.040000, -17.768726, -11.906704, -34.585625, -3.112994, -0.012294, -2.608365
149329461.300431, -0.007145, 0.001443, -0.000279, 0.016000, -0.032000, -1.024000, -17.724072, -11.811077, -34.595772, -3.113016, -0.012376, -2.608409
149329461.301453, -0.000416, 0.003207, -0.001171, 0.016000, -0.032000, -1.024000, -17.688349, -11.734576, -34.603889, -3.112967, -0.012473, -2.608490
149329461.302475, -0.004594, 0.000747, -0.002043, 0.032000, -0.016000, -1.040000, -17.659771, -11.673375, -34.610386, -3.113277, -0.012848, -2.608399
149329461.303498, 0.001184, -0.001959, 0.001289, 0.032000, -0.016000, -1.040000, -17.727818, -11.644823, -34.561035, -3.113524, -0.013186, -2.608396
149329461.304518, 0.001159, -0.001918, -0.001429, 0.032000, -0.016000, -1.040000, -17.782253, -11.621981, -34.521557, -3.113766, -0.013518, -2.608407
149329461.305584, 0.005321, -0.001579, -0.001399, -0.000000, -0.016000, -1.040000, -17.825802, -11.603707, -34.489971, -3.113962, -0.013235, -2.607939
149329461.306603, 0.000724, 0.000847, 0.000723, -0.000000, -0.016000, -1.040000, -17.824278, -11.650312, -34.501068, -3.114203, -0.012981, -2.607463
149329461.307626, 0.001606, -0.004553, 0.001007, 0.016000, -0.032000, -1.072000, -17.823059, -11.687597, -34.509945, -3.114138, -0.012974, -2.607630
149329461.308647, 0.004263, -0.002663, -0.000808, 0.016000, -0.032000, -1.072000, -17.822084, -11.717424, -34.517048, -3.114048, -0.012986, -2.607751
149329461.309677, 0.002080, -0.000215, 0.001302, 0.016000, -0.048000, -1.040000, -17.784941, -11.720879, -34.486366, -3.113656, -0.013037, -2.608349
149329461.310699, 0.003232, 0.000686, 0.000976, 0.016000, -0.048000, -1.040000, -17.755226, -11.723641, -34.461819, -3.113261, -0.013095, -2.608914
149329461.311724, 0.000772, 0.001569, -0.000839, 0.016000, -0.016000, -1.024000, -17.731453, -11.725852, -34.442181, -3.113507, -0.013164, -2.608572
149329461.312793, -0.000141, 0.000938, -0.002017, 0.016000, -0.016000, -1.024000, -17.712435, -11.727620, -34.426472, -3.113757, -0.013225, -2.608213
149329461.313814, -0.002231, 0.003011, -0.001676, 0.032000, 0.000000, -1.040000, -17.697220, -11.729035, -34.413906, -3.114332, -0.013613, -2.607688
149329461.314835, -0.002782, -0.000042, -0.000145, 0.032000, 0.000000, -1.040000, -17.685049, -11.730167, -34.403851, -3.114900, -0.013963, -2.607182
149329461.315860, 0.003855, 0.001154, 0.002250, -0.000000, -0.032000, -1.024000, -17.675312, -11.731072, -34.395809, -3.114772, -0.013694, -2.607047
149329461.316884, 0.003175, -0.000365, -0.000788, -0.000000, -0.032000, -1.024000, -17.776613, -11.772614, -34.389374, -3.114652, -0.013417, -2.606900
149329461.317906, -0.002872, -0.001852, 0.002219, 0.016000, -0.032000, -1.040000, -17.857655, -11.805846, -34.384228, -3.114605, -0.013437, -2.607041
149329461.318975, -0.004904, 0.000579, 0.002471, 0.016000, -0.032000, -1.040000, -17.922487, -11.832432, -34.380108, -3.114581, -0.013481, -2.607193
149329461.319997, -0.008090, 0.002660, -0.003262, 0.048000, -0.048000, -1.040000, -17.937990, -11.853701, -34.431358, -3.114296, -0.014170, -2.608172
149329461.321019, -0.001940, 0.000212, -0.001399, 0.048000, -0.048000, -1.040000, -17.950392, -11.870716, -34.472359, -3.113955, -0.014819, -2.609144
149329461.322040, -0.004889, 0.000805, -0.001669, 0.032000, -0.032000, -1.040000, -17.960314, -11.884328, -34.505161, -3.113945, -0.015147, -2.609435
149329461.323066, 0.002091, -0.001305, 0.002851, 0.032000, -0.032000, -1.040000, -17.877342, -11.813585, -34.476856, -3.113863, -0.015445, -2.609783
149329461.324089, 0.000851, 0.002909, 0.000997, -0.000000, -0.016000, -1.024000, -17.810965, -11.756990, -34.454212, -3.114101, -0.015169, -2.609188
149329461.325157, 0.002029, -0.000442, -0.000220, -0.000000, -0.016000, -1.024000, -17.757862, -11.711715, -34.436096, -3.114322, -0.014864, -2.608600
149329461.326181, 0.002286, -0.000731, -0.000813, 0.016000, -0.032000, -1.040000, -17.715382, -11.675494, -34.421604, -3.114229, -0.014868, -2.608717
149329461.327202, 0.007321, -0.001314, 0.000699, 0.016000, -0.032000, -1.040000, -17.699577, -11.728150, -34.446373, -3.114088, -0.014865, -2.608797
149329461.328225, -0.000010, -0.000090, -0.001409, 0.016000, -0.032000, -1.040000, -17.686935, -11.770275, -34.466190, -3.114023, -0.014875, -2.608815
149329461.329250, -0.000009, -0.003676, -0.001080, 0.016000, -0.032000, -1.040000, -17.676821, -11.803975, -34.482044, -3.113960, -0.014848, -2.608803
149329461.330272, 0.001187, -0.001207, 0.002232, -0.000000, -0.048000, -1.056000, -17.705093, -11.810527, -34.512909, -3.113590, -0.014540, -2.609003
149329461.331340, -0.004220, -0.003574, -0.001104, -0.000000, -0.048000, -1.056000, -17.727711, -11.815768, -34.537601, -3.113285, -0.014214, -2.609173
149329461.332357, -0.003234, 0.001585, 0.001012, -0.000000, -0.048000, -1.056000, -17.745806, -11.819962, -34.557354, -3.112973, -0.013947, -2.609368
149329461.333376, 0.001319, -0.000243, 0.001290, 0.016000, -0.048000, -1.056000, -17.742100, -11.762092, -34.536793, -3.112624, -0.013971, -2.609857
149329461.334399, -0.003493, 0.001856, -0.000531, 0.016000, -0.048000, -1.056000, -17.739134, -11.715796, -34.520344, -3.112331, -0.014017, -2.610355
149329461.335461, -0.004317, 0.003012, -0.003211, -0.000000, -0.016000, -1.024000, -17.736761, -11.678759, -34.507183, -3.112653, -0.013773, -2.609730
149329461.336479, -0.000638, 0.001753, -0.000752, -0.000000, -0.016000, -1.024000, -17.789410, -11.710354, -34.478474, -3.112930, -0.013520, -2.609145
149329461.337500, -0.002418, 0.004407, 0.001656, 0.016000, -0.016000, -1.024000, -17.831528, -11.735630, -34.455505, -3.113214, -0.013607, -2.608865
149329461.338522, -0.003563, 0.005510, -0.000173, 0.016000, -0.016000, -1.024000, -17.865223, -11.755851, -34.437130, -3.113504, -0.013704, -2.608573
149329461.339589, -0.003488, 0.000909, 0.000429, -0.000000, -0.016000, -1.024000, -17.892178, -11.772028, -34.422432, -3.113794, -0.013443, -2.608024
149329461.340610, 0.004658, 0.001189, 0.000719, -0.000000, -0.016000, -1.024000, -17.968288, -11.744153, -34.465218, -3.113994, -0.013189, -2.607550
149329461.341631, 0.004859, -0.001527, 0.002498, 0.016000, -0.032000, -1.040000, -18.029177, -11.721853, -34.499447, -3.113882, -0.013217, -2.607834
149329461.342652, -0.000924, -0.001495, 0.000651, 0.016000, -0.032000, -1.040000, -18.077887, -11.704013, -34.526829, -3.113830, -0.013245, -2.608131
149329461.343680, -0.002998, 0.001228, -0.000559, 0.016000, -0.032000, -1.040000, -17.989582, -11.689741, -34.530556, -3.113801, -0.013301, -2.608381
149329461.344707, 0.006633, -0.002386, 0.000350, 0.016000, -0.032000, -1.040000, -17.918938, -11.678324, -34.533535, -3.113675, -0.013319, -2.608612
149329461.345729, 0.000514, -0.001439, -0.002049, 0.016000, -0.032000, -1.040000, -17.862423, -11.669189, -34.535919, -3.113614, -0.013346, -2.608794
149329461.346796, -0.001291, 0.000385, -0.000511, 0.016000, -0.032000, -1.040000, -17.853575, -11.743515, -34.556007, -3.113572, -0.013391, -2.608925
149329461.347821, 0.003520, 0.000975, 0.004284, -0.000000, -0.048000, -1.056000, -17.846497, -11.802976, -34.572079, -3.113186, -0.013134, -2.609222
149329461.348828, 0.002549, 0.000357, 0.002998, -0.000000, -0.048000, -1.056000, -17.840834, -11.850544, -34.584934, -3.112819, -0.012876, -2.609456
149329461.349852, 0.005186, 0.000349, 0.000542, -0.000000, -0.032000, -1.040000, -17.836304, -11.847782, -34.577038, -3.112729, -0.012622, -2.609233
149329461.350922, -0.001800, 0.001239, -0.000964, -0.000000, -0.032000, -1.040000, -17.832680, -11.845572, -34.570721, -3.112711, -0.012383, -2.608999
149329461.351943, 0.002723, 0.001512, -0.001243, 0.016000, -0.032000, -1.024000, -17.829781, -11.843805, -34.565666, -3.112637, -0.012463, -2.609044
149329461.352966, -0.002417, 0.005965, 0.001176, 0.016000, -0.032000, -1.024000, -17.827461, -11.842391, -34.561623, -3.112616, -0.012584, -2.609113
149329461.353988, -0.006253, -0.000141, -0.000643, 0.016000, -0.032000, -1.040000, -17.771061, -11.780035, -34.540207, -3.112643, -0.012640, -2.609167
149329461.355010, -0.000740, -0.002530, 0.001463, 0.016000, -0.032000, -1.040000, -17.725941, -11.730150, -34.523075, -3.112614, -0.012669, -2.609259
149329461.356033, -0.001322, -0.001579, -0.002156, 0.016000, -0.048000, -1.040000, -17.689844, -11.690243, -34.509369, -3.112286, -0.012712, -2.609773
149329461.357100, -0.002191, 0.000846, -0.003605, 0.016000, -0.048000, -1.040000, -17.751875, -11.658317, -34.462040, -3.111974, -0.012780, -2.610316
149329461.358122, -0.002743, -0.000966, -0.003529, 0.016000, -0.016000, -1.040000, -17.801500, -11.632776, -34.424179, -3.112286, -0.012825, -2.610015
149329461.359144, 0.001202, -0.003338, 0.000432, 0.016000, -0.016000, -1.040000, -17.841200, -11.612344, -34.393890, -3.112552, -0.012844, -2.609795
149329461.360162, 0.001475, 0.000022, -0.000175, 0.016000, -0.016000, -1.040000, -17.836596, -11.698038, -34.424202, -3.112810, -0.012897, -2.609503
149329461.361184, 0.001743, 0.003609, 0.000128, -0.016000, -0.016000, -1.024000, -17.832912, -11.766594, -34.448452, -3.113068, -0.012368, -2.608626
149329461.362253, 0.000510, 0.000543, -0.000473, -0.016000, -0.016000, -1.024000, -17.829966, -11.821439, -34.467854, -3.113333, -0.011820, -2.607712
149329461.363275, -0.002544, -0.003122, 0.000138, 0.016000, -0.048000, -1.056000, -17.827608, -11.865314, -34.483376, -3.113016, -0.011859, -2.608173
149329461.364296, 0.000201, 0.000532, 0.002527, 0.016000, -0.048000, -1.056000, -17.825724, -11.859598, -34.459427, -3.112677, -0.011933, -2.608652
149329461.365318, 0.001692, 0.000820, 0.005165, 0.016000, -0.048000, -1.024000, -17.824215, -11.855025, -34.440269, -3.112302, -0.012018, -2.609200
149329461.366339, 0.001357, 0.000204, 0.006551, 0.016000, -0.048000, -1.024000, -17.823008, -11.851367, -34.424942, -3.111938, -0.012094, -2.609751
149329461.367404, 0.000431, -0.002491, 0.003124, 0.016000, -0.048000, -1.024000, -17.858406, -11.787216, -34.412682, -3.111590, -0.012141, -2.610327
149329461.368426, 0.000123, -0.000645, -0.000829, 0.016000, -0.048000, -1.024000, -17.886724, -11.735895, -34.402874, -3.111253, -0.012209, -2.610906
149329461.369446, -0.001972, -0.003023, 0.000385, 0.032000, -0.032000, -1.024000, -17.909380, -11.694839, -34.395027, -3.111259, -0.012559, -2.611326
149329461.370466, -0.004622, -0.001165, -0.002613, 0.032000, -0.032000, -1.024000, -17.891140, -11.723218, -34.461475, -3.111291, -0.012922, -2.611680
149329461.371531, 0.001455, -0.000842, -0.002558, -0.000000, -0.032000, -1.024000, -17.876549, -11.745921, -34.514633, -3.111259, -0.012655, -2.611496
149329461.372548, -0.001565, -0.002020, 0.000486, -0.000000, -0.032000, -1.024000, -17.864876, -11.764084, -34.557159, -3.111257, -0.012382, -2.611327
149329461.373570, 0.001159, 0.000115, 0.000774, -0.000000, -0.032000, -1.024000, -17.873718, -11.758206, -34.554817, -3.111228, -0.012135, -2.611174
149329461.374592, 0.002330, -0.000485, 0.001356, -0.000000, -0.032000, -1.024000, -17.880793, -11.753504, -34.552944, -3.111188, -0.011887, -2.611037
149329461.375613, 0.007663, -0.004063, 0.002822, 0.016000, -0.016000, -1.040000, -17.886452, -11.749742, -34.551445, -3.111411, -0.011918, -2.610735
149329461.376679, -0.000272, 0.001106, -0.002320, 0.016000, -0.016000, -1.040000, -17.890980, -11.746732, -34.550247, -3.111709, -0.012002, -2.610394
149329461.377707, -0.001163, 0.000784, -0.002869, 0.016000, -0.032000, -1.040000, -17.894602, -11.785141, -34.512924, -3.111704, -0.012078, -2.610453
149329461.378733, 0.000655, -0.001625, -0.000417, 0.016000, -0.032000, -1.040000, -17.897499, -11.815868, -34.483067, -3.111680, -0.012127, -2.610510
149329461.379757, -0.002648, 0.000203, 0.000788, 0.016000, -0.048000, -1.024000, -17.899818, -11.840450, -34.459179, -3.111369, -0.012203, -2.611024
149329461.380780, -0.001695, 0.005282, -0.001621, 0.016000, -0.048000, -1.024000, -17.956219, -11.900931, -34.512798, -3.111055, -0.012328, -2.611483
149329461.381802, 0.003723, 0.002181, 0.000507, -0.000000, -0.016000, -1.040000, -18.001339, -11.949317, -34.555695, -3.111325, -0.012108, -2.610785
149329461.382823, -0.001738, -0.002649, -0.000102, -0.000000, -0.016000, -1.040000, -18.037436, -11.988025, -34.590012, -3.111644, -0.011845, -2.610082
149329461.383891, 0.000392, -0.003789, 0.002591, 0.016000, -0.032000, -1.040000, -17.975403, -11.916950, -34.599281, -3.111624, -0.011875, -2.610137
149329461.384913, 0.001281, -0.002514, -0.000154, 0.016000, -0.032000, -1.040000, -17.925777, -11.860091, -34.606697, -3.111595, -0.011919, -2.610185
149329461.385928, -0.001138, 0.002323, -0.000749, 0.016000, -0.016000, -1.040000, -17.886076, -11.814604, -34.612629, -3.111898, -0.012014, -2.609817
149329461.386951, -0.001114, -0.001314, 0.000164, 0.016000, -0.016000, -1.040000, -17.854315, -11.778214, -34.599194, -3.112195, -0.012071, -2.609477
149329461.388018, 0.005188, 0.001106, -0.000438, 0.016000, -0.032000, -1.056000, -17.828907, -11.749102, -34.588448, -3.112123, -0.012144, -2.609562
149329461.389040, -0.003293, -0.001010, -0.002821, 0.016000, -0.032000, -1.056000, -17.808580, -11.725812, -34.579849, -3.112140, -0.012194, -2.609631
149329461.390066, 0.003952, 0.001702, -0.001266, 0.016000, -0.032000, -1.056000, -17.792318, -11.707180, -34.572971, -3.112083, -0.012271, -2.609722
149329461.391088, -0.000018, 0.001666, 0.002348, 0.032000, -0.032000, -1.056000, -17.779310, -11.753499, -34.512924, -3.112070, -0.012647, -2.610044
149329461.392114, -0.001812, 0.002827, -0.000093, 0.032000, -0.032000, -1.056000, -17.768904, -11.790554, -34.464886, -3.112075, -0.013028, -2.610300
149329461.393138, -0.001175, 0.001273, -0.001287, -0.000000, -0.016000, -1.040000, -17.760578, -11.820198, -34.426453, -3.112374, -0.012786, -2.609587
149329461.394161, 0.001540, 0.001246, 0.000833, -0.000000, -0.016000, -1.040000, -17.753918, -11.782689, -34.432072, -3.112639, -0.012547, -2.608937
149329461.395229, 0.002704, 0.000024, 0.000516, 0.016000, -0.016000, -1.024000, -17.748589, -11.752682, -34.436565, -3.112877, -0.012610, -2.608595
149329461.396252, -0.002436, -0.002070, 0.000207, 0.016000, -0.016000, -1.024000, -17.744326, -11.728676, -34.440163, -3.113163, -0.012652, -2.608273
149329461.397275, 0.002100, -0.000531, 0.001697, 0.016000, -0.032000, -1.040000, -17.704552, -11.709472, -34.424858, -3.113095, -0.012701, -2.608390
149329461.398295, 0.002056, 0.000377, 0.001063, 0.016000, -0.032000, -1.040000, -17.672733, -11.694108, -34.412613, -3.113029, -0.012758, -2.608493
149329461.399317, 0.004106, 0.002163, -0.000753, 0.016000, -0.048000, -1.024000, -17.647278, -11.681817, -34.402817, -3.112624, -0.012841, -2.609046
149329461.400385, -0.000466, -0.000275, -0.002232, 0.016000, -0.048000, -1.024000, -17.681459, -11.774025, -34.413162, -3.112272, -0.012899, -2.609510
149329461.401407, -0.000157, -0.003259, -0.000092, -0.000000, -0.016000, -1.024000, -17.708803, -11.847792, -34.421440, -3.112552, -0.012613, -2.608782
149329461.402428, 0.003435, -0.004386, -0.000688, -0.000000, -0.016000, -1.024000, -17.730679, -11.906805, -34.428062, -3.112791, -0.012322, -2.608026
149329461.403449, -0.002618, 0.002284, -0.001571, 0.016000, -0.016000, -1.024000, -17.748178, -11.954016, -34.433361, -3.113080, -0.012415, -2.607522
149329461.404470, -0.001068, -0.002249, -0.002435, 0.016000, -0.016000, -1.024000, -17.798542, -11.889743, -34.455780, -3.113348, -0.012460, -2.607095
149329461.405519, 0.001048, -0.001903, -0.001486, 0.032000, -0.016000, -1.024000, -17.838833, -11.838325, -34.473717, -3.113589, -0.012816, -2.607001
149329461.406543, -0.001067, -0.000069, -0.001156, 0.032000, -0.016000, -1.024000, -17.871067, -11.797191, -34.488064, -3.113847, -0.013184, -2.606961
149329461.407569, -0.002540, -0.000665, -0.001431, 0.016000, -0.032000, -1.040000, -17.824127, -11.743876, -34.481361, -3.113813, -0.013222, -2.607102
149329461.408595, 0.001102, 0.001143, 0.002486, 0.016000, -0.032000, -1.040000, -17.786575, -11.701223, -34.475998, -3.113742, -0.013276, -2.607297
149329461.409620, -0.003706, 0.001119, -0.002051, 0.016000, -0.032000, -1.056000, -17.756533, -11.667101, -34.471706, -3.113731, -0.013326, -2.607439
149329461.410681, -0.004525, 0.002291, -0.002307, 0.016000, -0.032000, -1.056000, -17.714317, -11.741844, -34.486458, -3.113730, -0.013386, -2.607494
149329461.411707, -0.001439, 0.002841, -0.000464, 0.016000, -0.048000, -1.040000, -17.680546, -11.801639, -34.498257, -3.113380, -0.013459, -2.607964
149329461.412729, 0.000086, 0.001286, -0.000753, 0.016000, -0.048000, -1.040000, -17.653528, -11.849474, -34.507698, -3.113021, -0.013514, -2.608370
149329461.413753, -0.004700, 0.001259, 0.001953, -0.016000, -0.032000, -1.072000, -17.631914, -11.887742, -34.515251, -3.113052, -0.012957, -2.607749
149329461.414774, 0.005266, 0.001831, -0.000181, -0.016000, -0.032000, -1.072000, -17.650986, -11.959173, -34.503109, -3.112982, -0.012417, -2.607071
149329461.415843, 0.004044, -0.001835, -0.002624, 0.032000, -0.032000, -1.040000, -17.666243, -12.016318, -34.493397, -3.112898, -0.012766, -2.607152
149329461.416864, -0.006506, -0.000899, -0.004064, 0.032000, -0.032000, -1.040000, -17.678450, -12.062035, -34.485626, -3.112923, -0.013117, -2.607187
149329461.417887, 0.000508, -0.001777, -0.001287, 0.032000, -0.032000, -1.040000, -17.706396, -11.996567, -34.515774, -3.112878, -0.013452, -2.607316
149329461.418910, 0.000199, -0.002338, 0.000534, 0.016000, -0.032000, -1.024000, -17.728754, -11.944192, -34.539890, -3.112826, -0.013471, -2.607281
149329461.419932, -0.001002, 0.000702, -0.001271, 0.016000, -0.032000, -1.024000, -17.746639, -11.902292, -34.559185, -3.112787, -0.013521, -2.607273
149329461.420954, -0.001280, 0.003079, -0.001843, 0.032000, -0.032000, -1.056000, -17.815493, -11.889181, -34.574619, -3.112773, -0.013888, -2.607513
149329461.422023, 0.004428, -0.000275, -0.000608, 0.032000, -0.032000, -1.056000, -17.870577, -11.878692, -34.586967, -3.112699, -0.014213, -2.607794
149329461.423046, 0.003737, -0.002362, 0.000900, 0.016000, -0.032000, -1.024000, -17.914644, -11.870300, -34.596848, -3.112615, -0.014217, -2.607903
149329461.424068, -0.000229, 0.001276, -0.000315, 0.016000, -0.032000, -1.024000, -17.858988, -11.863587, -34.586571, -3.112573, -0.014257, -2.607976
149329461.425090, -0.000822, 0.000950, 0.000290, -0.000000, -0.032000, -1.040000, -17.814463, -11.858217, -34.578346, -3.112548, -0.013982, -2.607761
149329461.426112, -0.004093, 0.000033, 0.000284, -0.000000, -0.032000, -1.040000, -17.778843, -11.853921, -34.571770, -3.112556, -0.013702, -2.607535
149329461.427134, 0.001375, 0.001826, -0.000320, -0.000000, -0.016000, -1.024000, -17.750347, -11.850484, -34.566505, -3.112815, -0.013451, -2.606867
149329461.428201, -0.000149, 0.000293, -0.000314, -0.000000, -0.016000, -1.024000, -17.745733, -11.908958, -34.544113, -3.113085, -0.013190, -2.606162
149329461.429222, -0.001043, -0.000013, 0.001487, 0.016000, -0.032000, -1.040000, -17.742041, -11.955738, -34.526199, -3.113051, -0.013232, -2.606140
149329461.430245, 0.006753, -0.001806, 0.001456, 0.016000, -0.032000, -1.040000, -17.739088, -11.993162, -34.511868, -3.112939, -0.013256, -2.606085
149329461.431267, 0.006611, 0.000026, 0.002322, -0.000000, -0.032000, -1.040000, -17.773088, -11.982285, -34.518585, -3.112832, -0.012990, -2.605804
149329461.432285, 0.003781, -0.000872, 0.001675, -0.000000, -0.032000, -1.040000, -17.800289, -11.973583, -34.523960, -3.112756, -0.012721, -2.605542
149329461.433343, -0.001083, 0.000642, 0.003434, 0.016000, -0.032000, -1.040000, -17.822050, -11.966621, -34.528259, -3.112729, -0.012779, -2.605583
149329461.434366, -0.002256, 0.000030, 0.000073, 0.016000, -0.032000, -1.040000, -17.784912, -11.961052, -34.531700, -3.112714, -0.012831, -2.605574
149329461.435416, -0.001013, -0.002961, -0.000826, -0.000000, -0.032000, -1.040000, -17.755203, -11.956596, -34.534451, -3.112688, -0.012544, -2.605283
149329461.436411, 0.003793, -0.002300, 0.000387, -0.000000, -0.032000, -1.040000, -17.731436, -11.953032, -34.536652, -3.112616, -0.012270, -2.605001
149329461.437486, 0.006703, 0.000140, 0.000379, 0.016000, -0.048000, -1.040000, -17.748785, -11.888957, -34.502048, -3.112203, -0.012338, -2.605488
149329461.438513, 0.004768, -0.001059, 0.000670, 0.016000, -0.048000, -1.040000, -17.762665, -11.837696, -34.474365, -3.111821, -0.012392, -2.606016
149329461.439539, -0.000117, -0.002831, 0.000357, 0.016000, -0.032000, -1.024000, -17.773767, -11.796687, -34.452221, -3.111794, -0.012427, -2.606143
149329461.440562, -0.004898, -0.003070, 0.001546, 0.016000, -0.032000, -1.024000, -17.782650, -11.763881, -34.434505, -3.111814, -0.012460, -2.606309
149329461.441585, -0.000609, -0.003005, -0.000879, 0.016000, -0.048000, -1.040000, -17.807938, -11.798860, -34.474876, -3.111494, -0.012493, -2.606858
149329461.442608, -0.000297, -0.001148, -0.000262, 0.016000, -0.048000, -1.040000, -17.828169, -11.826843, -34.507175, -3.111178, -0.012543, -2.607389
149329461.443640, 0.001802, -0.001124, 0.001836, 0.016000, -0.032000, -1.024000, -17.844353, -11.849230, -34.533012, -3.111143, -0.012592, -2.607497
149329461.444670, -0.001525, 0.002787, -0.002090, 0.016000, -0.032000, -1.024000, -17.839119, -11.867139, -34.571865, -3.111143, -0.012680, -2.607549
149329461.445700, 0.001198, 0.003924, -0.002046, 0.016000, -0.032000, -1.024000, -17.834932, -11.881466, -34.602947, -3.111116, -0.012779, -2.607589
149329461.446722, -0.000621, 0.000852, -0.002003, 0.016000, -0.032000, -1.008000, -17.831583, -11.892928, -34.627811, -3.111098, -0.012849, -2.607635
149329461.447792, -0.000309, 0.001133, -0.000465, 0.016000, -0.032000, -1.008000, -17.774357, -11.881689, -34.629520, -3.111076, -0.012921, -2.607678
149329461.448816, -0.000602, 0.001109, -0.003446, 0.032000, -0.032000, -1.040000, -17.728577, -11.872698, -34.630890, -3.111080, -0.013290, -2.607889
149329461.449839, -0.002383, -0.000410, 0.000813, 0.032000, -0.032000, -1.040000, -17.691952, -11.865505, -34.631985, -3.111101, -0.013634, -2.608128
149329461.450862, 0.001255, -0.000401, 0.000796, 0.016000, -0.032000, -1.056000, -17.680834, -11.880159, -34.578316, -3.111092, -0.013660, -2.608077
149329461.451886, 0.000033, -0.000094, 0.000181, 0.016000, -0.032000, -1.056000, -17.671940, -11.891883, -34.535381, -3.111096, -0.013688, -2.608005
149329461.452913, 0.007507, 0.001403, 0.003167, -0.000000, -0.016000, -1.024000, -17.664825, -11.901261, -34.501034, -3.111322, -0.013433, -2.607276
149329461.453934, 0.005854, 0.001075, 0.000111, -0.000000, -0.016000, -1.024000, -17.659134, -11.908764, -34.473553, -3.111562, -0.013180, -2.606522
149329461.455005, -0.000865, 0.001380, -0.002944, 0.016000, -0.064000, -1.024000, -17.709126, -11.955583, -34.433388, -3.110924, -0.013258, -2.607352
149329461.456028, -0.000548, 0.001052, -0.000191, 0.016000, -0.064000, -1.024000, -17.749119, -11.993037, -34.401257, -3.110296, -0.013328, -2.608178
149329461.457051, 0.000659, -0.000465, -0.001682, 0.032000, -0.032000, -1.024000, -17.781113, -12.023002, -34.375549, -3.110292, -0.013682, -2.608312
149329461.458074, 0.000347, 0.002834, 0.000746, 0.032000, -0.032000, -1.024000, -17.788527, -11.985748, -34.373165, -3.110291, -0.014060, -2.608502
149329461.459096, 0.001236, 0.002475, -0.000765, -0.000000, -0.032000, -1.056000, -17.794458, -11.955946, -34.371258, -3.110301, -0.013804, -2.608157
149329461.460124, -0.004770, -0.001165, 0.000447, -0.000000, -0.032000, -1.056000, -17.799204, -11.932104, -34.369732, -3.110371, -0.013517, -2.607852
149329461.461146, 0.001012, 0.000056, -0.000160, 0.016000, -0.032000, -1.024000, -17.748455, -11.892622, -34.404877, -3.110361, -0.013556, -2.607848
149329461.462219, -0.002299, 0.002746, 0.001039, 0.016000, -0.032000, -1.024000, -17.707855, -11.861036, -34.432991, -3.110385, -0.013624, -2.607863
149329461.463247, 0.002235, 0.000894, 0.001615, -0.000000, -0.032000, -1.056000, -17.675375, -11.835768, -34.455482, -3.110382, -0.013360, -2.607595
149329461.464271, 0.001291, -0.000620, -0.000213, -0.000000, -0.032000, -1.056000, -17.649391, -11.815553, -34.473476, -3.110389, -0.013087, -2.607318
149329461.465295, -0.001427, -0.002700, -0.001404, 0.016000, -0.032000, -1.056000, -17.628605, -11.799381, -34.487873, -3.110422, -0.013102, -2.607297
149329461.466317, -0.001098, 0.001244, -0.001973, 0.016000, -0.032000, -1.056000, -17.611975, -11.786444, -34.499390, -3.110450, -0.013153, -2.607274
149329461.467341, -0.000178, 0.001517, 0.000760, 0.016000, -0.048000, -1.024000, -17.598671, -11.776093, -34.508602, -3.110138, -0.013221, -2.607769
149329461.468363, -0.004062, 0.000289, -0.001349, 0.016000, -0.048000, -1.024000, -17.660755, -11.747405, -34.515972, -3.109872, -0.013276, -2.608286
149329461.469386, -0.002481, 0.000283, 0.000473, 0.016000, -0.016000, -1.024000, -17.710423, -11.724455, -34.521870, -3.110218, -0.013328, -2.607962
149329461.470457, -0.004821, -0.000022, 0.001659, 0.016000, -0.016000, -1.024000, -17.750156, -11.706095, -34.526588, -3.110583, -0.013375, -2.607691
149329461.471482, -0.000832, 0.000875, 0.001325, 0.016000, -0.032000, -1.024000, -17.709217, -11.691406, -34.530361, -3.110587, -0.013429, -2.607853
149329461.472502, 0.005763, -0.000638, -0.000497, 0.016000, -0.032000, -1.024000, -17.676464, -11.679656, -34.533379, -3.110525, -0.013466, -2.607988
149329461.473542, 0.000858, 0.002963, -0.001084, 0.016000, -0.032000, -1.024000, -17.650263, -11.670256, -34.535793, -3.110513, -0.013539, -2.608110
149329461.474568, -0.000057, 0.001107, 0.001032, 0.016000, -0.032000, -1.024000, -17.683847, -11.703551, -34.519543, -3.110511, -0.013591, -2.608238
149329461.475594, 0.002336, 0.001681, -0.000485, 0.016000, -0.032000, -1.024000, -17.710714, -11.730188, -34.506542, -3.110484, -0.013649, -2.608340
149329461.476619, -0.001899, -0.001344, -0.002269, 0.016000, -0.048000, -1.024000, -17.732208, -11.751497, -34.496143, -3.110189, -0.013680, -2.608865
149329461.477654, 0.001729, -0.003409, 0.000470, 0.016000, -0.048000, -1.024000, -17.749403, -11.768545, -34.487823, -3.109864, -0.013687, -2.609399
149329461.478685, -0.002494, -0.000646, -0.000437, -0.000000, -0.048000, -1.008000, -17.744978, -11.782183, -34.499352, -3.109570, -0.013410, -2.609668
149329461.479714, 0.000250, -0.002725, -0.001624, -0.000000, -0.048000, -1.008000, -17.741438, -11.793093, -34.508572, -3.109255, -0.013116, -2.609908
149329461.480737, -0.002446, -0.002369, -0.000693, 0.016000, -0.032000, -1.024000, -17.738605, -11.801821, -34.515949, -3.109302, -0.013143, -2.609928
149329461.481760, 0.000595, 0.001568, 0.003807, 0.016000, -0.032000, -1.024000, -17.736340, -11.808804, -34.485485, -3.109316, -0.013205, -2.609986
149329461.482788, -0.001809, -0.002651, -0.000459, -0.000000, -0.032000, -1.024000, -17.734526, -11.814390, -34.461117, -3.109356, -0.012915, -2.609729
149329461.483857, -0.005658, 0.001292, -0.003141, -0.000000, -0.032000, -1.024000, -17.733076, -11.818859, -34.441620, -3.109437, -0.012672, -2.609445
149329461.484885, 0.001637, -0.000529, -0.002177, -0.000000, -0.016000, -1.024000, -17.713734, -11.883658, -34.444206, -3.109756, -0.012420, -2.608671
149329461.485898, -0.003182, 0.002771, 0.002054, -0.000000, -0.016000, -1.024000, -17.698259, -11.935498, -34.446274, -3.110117, -0.012204, -2.607908
149329461.486922, 0.002267, 0.003310, -0.001876, 0.016000, -0.016000, -1.056000, -17.685881, -11.976970, -34.447929, -3.110420, -0.012301, -2.607334
149329461.487946, -0.001069, 0.001746, -0.000939, 0.016000, -0.016000, -1.056000, -17.730522, -11.989739, -34.485615, -3.110750, -0.012380, -2.606794
149329461.488970, -0.001645, 0.001111, -0.001817, -0.000000, -0.032000, -1.040000, -17.766235, -11.999955, -34.515766, -3.110771, -0.012145, -2.606439
149329461.490042, -0.002208, -0.002201, 0.000315, -0.000000, -0.032000, -1.040000, -17.794807, -12.008127, -34.539886, -3.110797, -0.011879, -2.606120
149329461.491064, 0.002323, -0.002753, 0.002401, 0.016000, -0.032000, -1.040000, -17.817665, -12.014665, -34.559181, -3.110774, -0.011920, -2.606097
149329461.492086, 0.001078, -0.001798, -0.000938, 0.016000, -0.032000, -1.040000, -17.799587, -12.060712, -34.501892, -3.110765, -0.011971, -2.605994
149329461.493110, 0.004943, 0.000034, 0.000576, 0.016000, -0.016000, -1.040000, -17.785124, -12.097549, -34.456059, -3.111023, -0.012044, -2.605447
149329461.494137, 0.000354, -0.003256, 0.000564, 0.016000, -0.016000, -1.040000, -17.773554, -12.127019, -34.419392, -3.111322, -0.012082, -2.604881
149329461.495160, 0.002140, 0.001896, 0.000552, 0.016000, -0.032000, -1.024000, -17.818844, -12.068962, -34.462788, -3.111281, -0.012172, -2.604836
149329461.496183, 0.004487, 0.002155, 0.003232, 0.016000, -0.032000, -1.024000, -17.855076, -12.022516, -34.497501, -3.111217, -0.012261, -2.604876
149329461.497254, 0.000805, -0.001479, -0.000723, 0.016000, -0.016000, -1.040000, -17.884060, -11.985360, -34.525272, -3.111508, -0.012311, -2.604475
149329461.498275, -0.003996, -0.001448, -0.002203, 0.016000, -0.016000, -1.040000, -17.907248, -11.935227, -34.547489, -3.111842, -0.012361, -2.604119
149329461.499300, 0.000872, -0.003809, -0.003054, 0.016000, -0.016000, -1.040000, -17.925798, -11.895121, -34.565266, -3.112120, -0.012386, -2.603802
149329461.500326, -0.000343, -0.002533, 0.000898, 0.016000, -0.016000, -1.040000, -17.940639, -11.863035, -34.579487, -3.112405, -0.012422, -2.603563
149329461.501351, 0.001490, -0.003449, -0.000935, 0.032000, -0.080000, -1.008000, -17.861603, -11.837367, -34.572681, -3.111408, -0.012817, -2.605389
149329461.502372, 0.002356, 0.000211, -0.000018, 0.032000, -0.080000, -1.008000, -17.798374, -11.816833, -34.567238, -3.110421, -0.013238, -2.607180
149329461.503399, 0.001409, -0.002185, -0.000915, 0.032000, -0.080000, -1.008000, -17.747791, -11.800405, -34.562881, -3.109463, -0.013625, -2.608918
149329461.504424, 0.000482, -0.000345, -0.001195, 0.032000, -0.048000, -1.040000, -17.707325, -11.787263, -34.559395, -3.109185, -0.013969, -2.609620
149329461.505495, -0.004013, -0.000039, 0.001820, 0.032000, -0.048000, -1.040000, -17.711315, -11.797157, -34.556606, -3.108958, -0.014308, -2.610332
149329461.506519, -0.001237, 0.000560, 0.002380, 0.016000, -0.032000, -1.024000, -17.714506, -11.805073, -34.554375, -3.108999, -0.014339, -2.610363
149329461.507544, 0.003872, 0.002342, -0.000062, 0.016000, -0.032000, -1.024000, -17.717060, -11.811405, -34.552589, -3.108986, -0.014388, -2.610365
149329461.508569, -0.002788, 0.004087, 0.002032, 0.016000, -0.016000, -1.040000, -17.810011, -11.796063, -34.587524, -3.109358, -0.014451, -2.609998
149329461.509589, -0.003028, 0.000413, -0.002196, 0.016000, -0.016000, -1.040000, -17.884373, -11.783790, -34.615475, -3.109725, -0.014477, -2.609642
149329461.510606, -0.003562, 0.001600, -0.002449, -0.000000, -0.032000, -1.040000, -17.943861, -11.773971, -34.637833, -3.109784, -0.014205, -2.609500
149329461.511640, -0.001394, -0.000826, -0.000903, -0.000000, -0.032000, -1.040000, -17.955090, -11.745708, -34.564812, -3.109820, -0.013912, -2.609403
149329461.512674, 0.001625, 0.001584, -0.001482, 0.032000, -0.016000, -1.024000, -17.964071, -11.723097, -34.506393, -3.110126, -0.014275, -2.609414
149329461.513703, 0.000096, -0.004130, -0.001450, 0.032000, -0.016000, -1.024000, -17.971256, -11.705009, -34.459660, -3.110443, -0.014573, -2.609438
149329461.514729, -0.001126, 0.000146, 0.000382, -0.000000, -0.048000, -1.056000, -17.977005, -11.690537, -34.422272, -3.110166, -0.014285, -2.609837
149329461.515799, 0.000991, 0.001339, 0.000075, -0.000000, -0.048000, -1.056000, -17.945240, -11.801410, -34.428726, -3.109874, -0.014016, -2.610116
149329461.516823, -0.004113, 0.000114, -0.000824, -0.000000, -0.032000, -1.040000, -17.919828, -11.890107, -34.433891, -3.109936, -0.013737, -2.609869
149329461.517844, 0.000459, 0.002205, -0.000208, -0.000000, -0.032000, -1.040000, -17.899500, -11.961065, -34.438023, -3.109951, -0.013484, -2.609565
149329461.518859, 0.003439, 0.005149, 0.003085, 0.016000, -0.016000, -1.024000, -17.919600, -11.936199, -34.495872, -3.110237, -0.013581, -2.609177
149329461.519889, -0.001717, 0.004442, -0.000568, 0.016000, -0.016000, -1.024000, -17.935680, -11.916306, -34.542152, -3.110568, -0.013670, -2.608783
149329461.520913, -0.000484, 0.002256, 0.000939, 0.016000, -0.032000, -1.040000, -17.948544, -11.900393, -34.579178, -3.110578, -0.013725, -2.608848
149329461.521984, -0.001969, -0.000184, 0.000321, 0.016000, -0.032000, -1.040000, -17.940653, -11.846845, -34.572433, -3.110604, -0.013756, -2.608944
149329461.523007, -0.001928, 0.000717, 0.000913, 0.032000, -0.032000, -1.024000, -17.934341, -11.804007, -34.567039, -3.110621, -0.014112, -2.609340
149329461.524031, 0.002598, 0.000403, 0.002687, 0.032000, -0.032000, -1.024000, -17.929291, -11.769736, -34.562721, -3.110593, -0.014458, -2.609772
149329461.525054, -0.001344, 0.000095, -0.000658, 0.032000, -0.016000, -1.056000, -17.925251, -11.783136, -34.541088, -3.110923, -0.014776, -2.609691
149329461.526079, -0.002811, 0.001289, 0.001150, 0.032000, -0.016000, -1.056000, -17.922020, -11.793856, -34.523781, -3.111260, -0.015100, -2.609620
149329461.527103, 0.001435, 0.001860, 0.001126, 0.016000, -0.032000, -1.024000, -17.919434, -11.802431, -34.509933, -3.111228, -0.015128, -2.609750
149329461.528126, 0.005889, -0.000272, 0.000205, 0.016000, -0.032000, -1.024000, -17.917366, -11.809292, -34.498856, -3.111151, -0.015135, -2.609861
149329461.529200, 0.000383, -0.002060, 0.000500, 0.016000, 0.000000, -1.040000, -17.952074, -11.814780, -34.544540, -3.111756, -0.015130, -2.609124
149329461.530226, -0.002316, -0.000522, -0.002202, 0.016000, 0.000000, -1.040000, -17.979841, -11.819171, -34.581085, -3.112376, -0.015140, -2.608386
149329461.531249, -0.002267, 0.001881, -0.003352, 0.016000, 0.000000, -1.040000, -18.002054, -11.822683, -34.610321, -3.112983, -0.015175, -2.607661
149329461.532263, 0.000472, -0.000550, -0.001188, 0.032000, -0.032000, -1.040000, -17.965281, -11.805085, -34.615528, -3.112939, -0.015482, -2.608055
149329461.533284, -0.001033, 0.000358, -0.000565, 0.032000, -0.032000, -1.040000, -17.935862, -11.791007, -34.619694, -3.112910, -0.015791, -2.608447
149329461.534307, 0.004159, 0.001885, 0.000046, -0.000000, -0.032000, -0.992000, -17.912325, -11.779744, -34.623028, -3.112798, -0.015494, -2.608377
149329461.535370, 0.000484, 0.000052, -0.001749, -0.000000, -0.032000, -0.992000, -17.911678, -11.791142, -34.571148, -3.112725, -0.015185, -2.608278
149329461.536392, 0.001400, -0.002697, 0.001305, 0.016000, -0.016000, -1.040000, -17.911161, -11.800261, -34.529644, -3.112980, -0.015164, -2.607988
149329461.537417, -0.001620, -0.000248, 0.000979, 0.016000, -0.016000, -1.040000, -17.910748, -11.807555, -34.496441, -3.113261, -0.015167, -2.607695
149329461.538440, 0.000508, 0.001252, 0.000061, -0.000000, -0.032000, -1.040000, -17.946779, -11.833799, -34.506245, -3.113208, -0.014876, -2.607567
149329461.539465, -0.000101, -0.000868, 0.000359, -0.000000, -0.032000, -1.040000, -17.975605, -11.854795, -34.514088, -3.113162, -0.014570, -2.607441
149329461.540488, -0.001594, -0.000849, 0.001248, -0.000000, -0.032000, -1.056000, -17.998667, -11.871591, -34.520363, -3.113142, -0.014270, -2.607311
149329461.541558, 0.000832, -0.001728, -0.000871, -0.000000, -0.032000, -1.056000, -18.017115, -11.885028, -34.525383, -3.113097, -0.013966, -2.607159
149329461.542578, 0.000814, -0.000795, -0.004740, 0.016000, -0.032000, -1.024000, -17.995510, -11.957002, -34.529396, -3.113035, -0.013993, -2.607191
149329461.543601, 0.002591, 0.001614, -0.002248, 0.016000, -0.032000, -1.024000, -17.978226, -12.014581, -34.532608, -3.112957, -0.014041, -2.607193
149329461.544632, 0.000144, 0.001580, 0.000789, 0.016000, -0.048000, -1.056000, -17.964399, -12.060644, -34.535179, -3.112620, -0.014082, -2.607578
149329461.545663, 0.001337, 0.000948, -0.001021, 0.016000, -0.048000, -1.056000, -17.953339, -11.975046, -34.537235, -3.112278, -0.014116, -2.608001
149329461.546702, 0.000113, 0.000031, -0.001000, -0.000000, -0.016000, -1.024000, -17.944489, -11.906568, -34.538879, -3.112555, -0.013839, -2.607369
149329461.547729, 0.001008, -0.000567, 0.000217, -0.000000, -0.016000, -1.024000, -17.937408, -11.851785, -34.540195, -3.112817, -0.013560, -2.606802
149329461.548752, -0.005712, 0.000655, -0.000394, 0.016000, -0.064000, -1.024000, -17.913563, -11.869183, -34.541248, -3.112203, -0.013624, -2.607825
149329461.549775, 0.001585, -0.000555, 0.000512, 0.016000, -0.064000, -1.024000, -17.894487, -11.883101, -34.542091, -3.111527, -0.013674, -2.608816
149329461.550799, 0.001279, 0.002805, 0.001123, 0.016000, -0.016000, -1.040000, -17.879227, -11.894237, -34.542763, -3.111808, -0.013739, -2.608426
149329461.551869, 0.000056, 0.003044, 0.000800, 0.016000, -0.016000, -1.040000, -17.921564, -11.862329, -34.616028, -3.112094, -0.013806, -2.608088
149329461.552895, 0.000952, 0.001186, -0.001908, 0.016000, -0.032000, -1.024000, -17.955433, -11.836802, -34.674641, -3.112051, -0.013854, -2.608212
149329461.553918, 0.000633, -0.000932, -0.001569, 0.016000, -0.032000, -1.024000, -17.982529, -11.816381, -34.721531, -3.112011, -0.013881, -2.608368
149329461.554940, 0.003012, -0.001211, 0.003547, 0.032000, -0.032000, -1.024000, -18.004206, -11.800043, -34.759045, -3.111951, -0.014215, -2.608844
149329461.555963, 0.004443, -0.000588, 0.004968, 0.032000, -0.032000, -1.024000, -18.003365, -11.786973, -34.679962, -3.111877, -0.014548, -2.609332
149329461.556986, 0.003453, -0.001771, -0.000818, 0.016000, -0.048000, -1.056000, -18.002691, -11.776517, -34.616695, -3.111529, -0.014546, -2.609911
149329461.558010, -0.002600, -0.002332, 0.000395, 0.016000, -0.048000, -1.056000, -18.002153, -11.768152, -34.566082, -3.111248, -0.014539, -2.610495
149329461.559080, -0.002545, -0.002283, 0.001583, 0.016000, -0.016000, -1.056000, -17.983541, -11.822685, -34.580139, -3.111578, -0.014529, -2.610173
149329461.560098, 0.001395, 0.000456, 0.002447, 0.016000, -0.016000, -1.056000, -17.968651, -11.866311, -34.591385, -3.111861, -0.014548, -2.609824
149329461.561130, -0.001923, -0.001347, 0.000601, 0.016000, -0.016000, -1.056000, -17.956739, -11.901212, -34.600380, -3.112171, -0.014549, -2.609430
149329461.562157, -0.000388, -0.001917, 0.001186, 0.016000, -0.016000, -1.024000, -17.965391, -11.867908, -34.571213, -3.112451, -0.014553, -2.609101
149329461.563180, -0.003668, -0.000980, 0.000862, 0.016000, -0.016000, -1.024000, -17.972313, -11.841266, -34.547878, -3.112757, -0.014567, -2.608799
149329461.564202, 0.001524, -0.000369, -0.000054, -0.000000, -0.064000, -1.040000, -17.977850, -11.819951, -34.529213, -3.112084, -0.014284, -2.609583
149329461.565227, 0.001492, -0.000361, 0.002040, -0.000000, -0.064000, -1.040000, -17.982281, -11.802899, -34.514278, -3.111424, -0.014007, -2.610388
149329461.566296, 0.001161, 0.001142, 0.001100, 0.016000, -0.032000, -1.040000, -17.985825, -11.891299, -34.520515, -3.111400, -0.014045, -2.610445
149329461.567322, 0.000240, -0.000975, 0.000180, 0.016000, -0.032000, -1.040000, -17.988659, -11.962019, -34.525505, -3.111388, -0.014059, -2.610437
149329461.568345, 0.002029, 0.001138, 0.000176, 0.016000, -0.016000, -1.040000, -17.990927, -12.018595, -34.529495, -3.111663, -0.014100, -2.609961
149329461.569366, -0.001004, 0.000815, -0.001322, 0.016000, -0.016000, -1.040000, -18.010923, -11.920999, -34.550869, -3.111964, -0.014137, -2.609566
149329461.570386, 0.002605, 0.000798, -0.001294, 0.016000, -0.016000, -1.040000, -18.026920, -11.842921, -34.567966, -3.112223, -0.014173, -2.609248
149329461.571407, 0.000757, -0.000714, 0.000826, 0.016000, -0.016000, -1.040000, -18.039719, -11.780459, -34.581646, -3.112495, -0.014191, -2.609013
149329461.572474, 0.000143, -0.000998, 0.001705, 0.016000, -0.016000, -1.024000, -18.031775, -11.812122, -34.592590, -3.112762, -0.014210, -2.608774
149329461.573498, 0.006718, -0.001276, 0.001969, 0.016000, -0.016000, -1.024000, -18.025419, -11.837453, -34.601345, -3.112958, -0.014227, -2.608519
149329461.574520, 0.000596, 0.000844, -0.000764, 0.016000, -0.032000, -1.024000, -18.020336, -11.857718, -34.608349, -3.112901, -0.014264, -2.608658
149329461.575533, -0.003004, -0.000071, -0.003140, 0.016000, -0.032000, -1.024000, -17.998087, -11.873929, -34.613953, -3.112880, -0.014291, -2.608747
149329461.576561, -0.004137, -0.001863, -0.002177, 0.016000, -0.048000, -1.040000, -17.980288, -11.886898, -34.618435, -3.112575, -0.014299, -2.609247
149329461.577587, -0.001359, -0.000927, -0.002430, 0.016000, -0.048000, -1.040000, -17.966049, -11.897274, -34.622021, -3.112247, -0.014316, -2.609720
149329461.578658, -0.001031, -0.000907, 0.000312, 0.032000, -0.048000, -1.024000, -17.954659, -11.905575, -34.624889, -3.111914, -0.014650, -2.610464
149329461.579690, 0.004671, 0.005391, 0.004193, 0.032000, -0.048000, -1.024000, -17.945545, -11.932623, -34.590820, -3.111529, -0.015040, -2.611207
149329461.580719, 0.001583, -0.000105, 0.002011, 0.016000, -0.032000, -1.024000, -17.938255, -11.954262, -34.563564, -3.111490, -0.015049, -2.611204
149329461.581743, -0.001440, -0.001000, 0.001670, 0.016000, -0.032000, -1.024000, -17.932423, -11.971573, -34.541759, -3.111482, -0.015050, -2.611179
149329461.582766, 0.001879, -0.001577, -0.000159, 0.016000, -0.032000, -1.008000, -17.982302, -11.965014, -34.633408, -3.111434, -0.015049, -2.611184
149329461.583789, 0.002138, 0.002045, 0.000143, 0.016000, -0.032000, -1.008000, -18.022205, -11.959766, -34.706726, -3.111381, -0.015086, -2.611219
149329461.584812, -0.001495, 0.001404, 0.001934, 0.016000, -0.032000, -1.040000, -18.054129, -11.955568, -34.765381, -3.111385, -0.015105, -2.611255
149329461.585874, 0.002125, -0.000420, -0.001695, 0.016000, -0.032000, -1.040000, -18.097849, -11.850169, -34.739578, -3.111352, -0.015106, -2.611358
149329461.586900, -0.002106, -0.001308, -0.002855, 0.016000, -0.048000, -1.040000, -18.132824, -11.765850, -34.718937, -3.111057, -0.015104, -2.611973
149329461.587923, -0.004454, 0.000513, -0.001898, 0.016000, -0.048000, -1.040000, -18.160805, -11.698395, -34.702423, -3.110790, -0.015121, -2.612654
149329461.588946, -0.002865, 0.000802, -0.000662, 0.016000, -0.048000, -1.040000, -18.092279, -11.746471, -34.671028, -3.110512, -0.015138, -2.613261
149329461.589969, 0.002578, -0.004298, -0.001844, 0.016000, -0.016000, -1.040000, -18.037460, -11.784932, -34.645912, -3.110801, -0.015103, -2.612915
149329461.590993, -0.004055, -0.002713, -0.002104, 0.016000, -0.016000, -1.040000, -17.993605, -11.815701, -34.625820, -3.111150, -0.015085, -2.612527
149329461.592018, -0.004567, 0.001829, -0.000565, 0.016000, 0.000000, -1.040000, -17.958521, -11.840316, -34.609749, -3.111804, -0.015122, -2.611711
149329461.593089, -0.004471, 0.002389, -0.002646, 0.016000, 0.000000, -1.040000, -17.966816, -11.900825, -34.615070, -3.112447, -0.015165, -2.610848
149329461.594110, 0.003696, 0.001442, 0.000101, 0.016000, -0.032000, -1.040000, -17.973454, -11.949231, -34.619328, -3.112381, -0.015183, -2.610838
149329461.595134, 0.001226, -0.001579, -0.000200, 0.016000, -0.032000, -1.040000, -17.978764, -11.987956, -34.622734, -3.112339, -0.015171, -2.610796
149329461.596156, -0.000594, 0.003537, -0.000196, -0.016000, -0.064000, -1.024000, -17.983011, -11.916896, -34.570915, -3.111675, -0.014598, -2.611233
149329461.597179, -0.004169, 0.003463, -0.000192, -0.016000, -0.064000, -1.024000, -17.986408, -11.860047, -34.529461, -3.111060, -0.014037, -2.611709
149329461.598202, -0.001091, 0.001297, 0.001905, -0.000000, -0.032000, -1.040000, -17.989126, -11.814569, -34.496296, -3.111067, -0.013769, -2.611556
149329461.599226, 0.002221, -0.001720, 0.001566, -0.000000, -0.032000, -1.040000, -17.973120, -11.696553, -34.506126, -3.111041, -0.013476, -2.611490
149329461.600295, 0.002473, -0.003478, 0.003327, 0.016000, -0.032000, -1.040000, -17.960314, -11.602140, -34.513992, -3.111010, -0.013476, -2.611769
149329461.601318, 0.000328, -0.001013, 0.003257, 0.016000, -0.032000, -1.040000, -17.950069, -11.526610, -34.520287, -3.111003, -0.013503, -2.612099
149329461.602341, 0.003012, 0.002298, 0.001693, 0.032000, -0.032000, -1.024000, -17.960056, -11.568227, -34.598049, -3.110965, -0.013880, -2.612642
149329461.603364, -0.000341, -0.000442, 0.000761, 0.032000, -0.032000, -1.024000, -17.968044, -11.601521, -34.660259, -3.110960, -0.014222, -2.613144
149329461.604386, 0.001461, -0.004021, -0.001348, -0.000000, -0.032000, -1.040000, -17.974436, -11.628156, -34.710026, -3.110943, -0.013898, -2.613079
149329461.605407, -0.000364, 0.002941, 0.001371, -0.000000, -0.032000, -1.040000, -17.979549, -11.649464, -34.749840, -3.110945, -0.013649, -2.613030
149329461.606474, -0.000955, 0.000487, 0.000146, 0.032000, -0.048000, -1.040000, -17.983639, -11.686918, -34.690781, -3.110652, -0.014002, -2.613873
149329461.607500, 0.004149, -0.000121, -0.003445, 0.032000, -0.048000, -1.040000, -17.986912, -11.716882, -34.643536, -3.110314, -0.014343, -2.614638
149329461.608525, -0.001919, -0.001016, 0.001412, 0.016000, -0.048000, -1.040000, -17.989529, -11.740852, -34.605740, -3.110037, -0.014356, -2.615181
149329461.609547, -0.003074, 0.000800, 0.000784, 0.016000, -0.048000, -1.040000, -17.900715, -11.739621, -34.630047, -3.109776, -0.014388, -2.615669
149329461.610562, -0.004206, -0.002506, -0.000130, 0.016000, -0.016000, -1.008000, -17.829662, -11.738636, -34.649490, -3.110137, -0.014396, -2.615250
149329461.611630, -0.001127, -0.000360, 0.001069, 0.016000, -0.016000, -1.008000, -17.772821, -11.737847, -34.665047, -3.110460, -0.014424, -2.614827
149329461.612665, -0.007382, -0.004539, 0.000449, 0.016000, 0.000000, -1.024000, -17.836439, -11.757625, -34.641129, -3.111156, -0.014415, -2.613982
149329461.613693, -0.006629, -0.000556, -0.001654, 0.016000, 0.000000, -1.024000, -17.887333, -11.773447, -34.621994, -3.111832, -0.014446, -2.613146
149329461.614714, -0.004097, -0.001142, -0.000423, 0.016000, -0.016000, -1.056000, -17.928049, -11.786104, -34.606686, -3.112165, -0.014452, -2.612753
149329461.615738, -0.003114, -0.000221, -0.001610, 0.016000, -0.016000, -1.056000, -17.960621, -11.796230, -34.594440, -3.112481, -0.014467, -2.612363
149329461.616760, -0.000059, -0.000815, 0.000517, 0.016000, -0.016000, -1.056000, -17.986679, -11.804331, -34.584644, -3.112761, -0.014474, -2.612008
149329461.617799, 0.004129, 0.001594, -0.000092, 0.032000, -0.032000, -1.056000, -18.007524, -11.810812, -34.576805, -3.112692, -0.014807, -2.612320
149329461.618825, -0.001041, 0.000066, -0.000688, 0.032000, -0.032000, -1.056000, -18.024202, -11.815996, -34.570534, -3.112677, -0.015118, -2.612623
149329461.619851, 0.008733, -0.001767, 0.002061, 0.016000, -0.032000, -0.992000, -17.964817, -11.840552, -34.547337, -3.112523, -0.015119, -2.612730
149329461.620875, 0.004662, 0.001859, 0.001718, 0.016000, -0.032000, -0.992000, -17.917309, -11.860197, -34.528778, -3.112412, -0.015157, -2.612794
149329461.621902, 0.006494, -0.000280, 0.000191, -0.000000, -0.016000, -1.056000, -17.879301, -11.875913, -34.513931, -3.112633, -0.014856, -2.612056
149329461.622974, -0.000519, -0.001769, -0.000411, -0.000000, -0.016000, -1.056000, -17.921623, -11.908894, -34.556599, -3.112920, -0.014546, -2.611321
149329461.624001, -0.000808, 0.002754, 0.002289, -0.000000, -0.048000, -1.040000, -17.955481, -11.935278, -34.590733, -3.112578, -0.014284, -2.611514
149329461.625024, 0.003096, 0.002098, 0.001344, -0.000000, -0.048000, -1.040000, -17.982567, -11.956386, -34.618042, -3.112203, -0.014020, -2.611689
149329461.626046, -0.001753, 0.002053, -0.001675, 0.016000, -0.032000, -1.024000, -18.004236, -11.891639, -34.658070, -3.112184, -0.014073, -2.611722
149329461.627080, -0.000221, 0.002608, -0.001639, 0.016000, -0.032000, -1.024000, -18.021570, -11.839842, -34.690094, -3.112150, -0.014130, -2.611806
149329461.628108, 0.001279, 0.000460, -0.000708, 0.016000, -0.016000, -1.024000, -18.035439, -11.798404, -34.715714, -3.112414, -0.014167, -2.611502
149329461.629133, 0.006335, 0.001049, 0.001101, 0.016000, -0.016000, -1.024000, -18.046534, -11.765254, -34.736206, -3.112621, -0.014208, -2.611253
149329461.630156, -0.000675, -0.001963, -0.001314, 0.032000, -0.032000, -1.024000, -18.037228, -11.820367, -34.698055, -3.112586, -0.014529, -2.611619
149329461.631179, 0.000834, -0.000128, -0.001286, 0.032000, -0.032000, -1.024000, -18.029781, -11.864457, -34.667534, -3.112535, -0.014863, -2.611938
149329461.632235, 0.003507, -0.001022, 0.002628, 0.016000, -0.032000, -1.024000, -18.023825, -11.899729, -34.643120, -3.112456, -0.014866, -2.612011
149329461.633259, -0.001949, 0.001092, 0.003170, 0.016000, -0.032000, -1.024000, -18.037241, -11.866722, -34.641769, -3.112433, -0.014891, -2.612122
149329461.634285, 0.000185, 0.000172, 0.000114, 0.016000, -0.048000, -1.040000, -18.047976, -11.840317, -34.640690, -3.112092, -0.014907, -2.612648
149329461.635303, 0.003172, -0.004018, 0.000709, 0.016000, -0.048000, -1.040000, -18.056562, -11.819192, -34.639824, -3.111728, -0.014880, -2.613191
149329461.636323, -0.001978, -0.004830, 0.000694, 0.048000, -0.032000, -1.056000, -18.099796, -11.822701, -34.639133, -3.111748, -0.015442, -2.613746
149329461.637397, -0.002236, -0.002037, 0.000680, 0.048000, -0.032000, -1.056000, -18.134382, -11.825507, -34.638580, -3.111770, -0.016020, -2.614304
149329461.638422, 0.001399, -0.001097, -0.000830, 0.032000, -0.016000, -1.040000, -18.162052, -11.827753, -34.638138, -3.112044, -0.016304, -2.614220
149329461.639444, 0.002566, -0.000775, 0.001281, 0.032000, -0.016000, -1.040000, -18.111460, -11.849957, -34.583237, -3.112301, -0.016586, -2.614117
149329461.640466, 0.000718, -0.000460, 0.001254, 0.016000, -0.048000, -1.040000, -18.070986, -11.867722, -34.539318, -3.111957, -0.016560, -2.614599
149329461.641488, -0.003483, 0.000148, -0.002062, 0.016000, -0.048000, -1.040000, -18.038607, -11.881932, -34.504181, -3.111662, -0.016542, -2.615010
149329461.642510, -0.000719, -0.002247, -0.003214, 0.016000, -0.032000, -1.024000, -18.012703, -11.893301, -34.476070, -3.111644, -0.016502, -2.614958
149329461.643579, 0.000193, -0.001602, 0.001339, 0.016000, -0.032000, -1.024000, -17.991982, -11.881988, -34.508129, -3.111618, -0.016468, -2.614954
149329461.644601, -0.000409, 0.000226, 0.000114, 0.016000, -0.032000, -1.024000, -17.975403, -11.872937, -34.533775, -3.111596, -0.016453, -2.614937
149329461.645631, 0.001394, 0.004706, -0.001682, 0.016000, -0.016000, -1.024000, -17.962141, -11.865697, -34.554295, -3.111870, -0.016488, -2.614470
149329461.646668, 0.002860, 0.001318, -0.001049, 0.016000, -0.016000, -1.024000, -17.987894, -11.859904, -34.570709, -3.112123, -0.016487, -2.614035
149329461.647698, -0.001686, 0.004579, -0.001027, -0.000000, -0.032000, -1.056000, -18.008497, -11.855270, -34.583839, -3.112126, -0.016204, -2.613771
149329461.648720, -0.003743, 0.000895, -0.001005, -0.000000, -0.032000, -1.056000, -18.024981, -11.851563, -34.594345, -3.112149, -0.015889, -2.613523
149329461.649742, -0.005159, 0.004165, -0.001283, -0.000000, -0.016000, -1.072000, -18.019985, -11.787374, -34.639114, -3.112496, -0.015618, -2.612894
149329461.650764, -0.003257, 0.000190, 0.001136, -0.000000, -0.016000, -1.072000, -18.015987, -11.736021, -34.674927, -3.112816, -0.015311, -2.612339
149329461.651785, 0.001596, -0.002804, 0.000514, -0.000000, -0.016000, -1.040000, -18.012791, -11.694940, -34.703579, -3.113071, -0.014980, -2.611833
149329461.652815, -0.000232, -0.001848, -0.000394, -0.000000, -0.016000, -1.040000, -18.010233, -11.641666, -34.635590, -3.113340, -0.014665, -2.611369
149329461.653839, -0.000825, 0.000284, 0.002007, 0.016000, -0.016000, -1.040000, -18.008186, -11.599048, -34.581200, -3.113605, -0.014682, -2.611232
149329461.654910, 0.000687, 0.002072, 0.000768, 0.016000, -0.016000, -1.040000, -18.006550, -11.564953, -34.537685, -3.113850, -0.014719, -2.611112
149329461.655934, -0.000822, -0.002158, -0.000145, 0.016000, 0.000000, -1.040000, -18.005239, -11.537677, -34.502876, -3.114412, -0.014717, -2.610584
149329461.656956, -0.000805, 0.002074, 0.001054, 0.016000, 0.000000, -1.040000, -18.058737, -11.638305, -34.584118, -3.114964, -0.014759, -2.610027
149329461.657977, 0.001944, 0.002685, 0.001360, 0.032000, -0.048000, -1.040000, -18.101536, -11.718807, -34.649113, -3.114562, -0.015113, -2.610966
149329461.658999, 0.000408, 0.006515, -0.002855, 0.032000, -0.048000, -1.040000, -18.135775, -11.783209, -34.701107, -3.114183, -0.015500, -2.611809
149329461.660066, -0.002291, -0.000200, -0.003094, 0.016000, -0.032000, -1.056000, -18.090439, -11.691874, -34.706341, -3.114150, -0.015492, -2.611993
149329461.661083, 0.002242, -0.000196, -0.000039, 0.016000, -0.032000, -1.056000, -18.054169, -11.618805, -34.710526, -3.114070, -0.015483, -2.612248
149329461.662111, -0.000795, -0.001986, -0.001832, -0.000000, -0.048000, -1.024000, -18.025154, -11.560350, -34.713875, -3.113688, -0.015159, -2.612755
149329461.663132, -0.003769, 0.000149, -0.000298, -0.000000, -0.048000, -1.024000, -18.020123, -11.636036, -34.698372, -3.113344, -0.014862, -2.613200
149329461.664152, 0.001095, 0.002837, 0.000007, 0.016000, -0.032000, -1.040000, -18.016098, -11.696584, -34.685970, -3.113283, -0.014900, -2.613367
149329461.665176, -0.000722, -0.000512, 0.000904, 0.016000, -0.032000, -1.040000, -18.012878, -11.745022, -34.676048, -3.113241, -0.014905, -2.613497
149329461.666246, -0.005790, 0.001293, -0.002703, 0.016000, -0.016000, -1.040000, -18.010303, -11.804181, -34.649929, -3.113561, -0.014931, -2.613109
149329461.667268, -0.002977, 0.001266, -0.000254, 0.016000, -0.016000, -1.040000, -18.026424, -11.851508, -34.629036, -3.113844, -0.014955, -2.612725
149329461.668290, 0.003364, 0.000342, 0.000648, -0.000000, -0.032000, -1.024000, -18.039322, -11.889370, -34.612320, -3.113742, -0.014659, -2.612519
149329461.669311, 0.002397, -0.000562, 0.001830, -0.000000, -0.032000, -1.024000, -18.049639, -11.919660, -34.598946, -3.113652, -0.014359, -2.612308
149329461.670331, 0.000253, 0.000347, -0.001198, 0.016000, -0.032000, -1.024000, -18.021530, -11.862258, -34.624611, -3.113584, -0.014388, -2.612364
149329461.671401, 0.004733, -0.001155, 0.001817, 0.016000, -0.032000, -1.024000, -17.999043, -11.816337, -34.645142, -3.113470, -0.014400, -2.612476
149329461.672421, 0.002839, -0.002327, 0.000882, 0.016000, -0.048000, -1.040000, -17.981052, -11.779600, -34.661568, -3.113082, -0.014401, -2.613023
149329461.673460, 0.002181, 0.000413, 0.000564, 0.016000, -0.048000, -1.040000, -17.966660, -11.750211, -34.638344, -3.112708, -0.014429, -2.613574
149329461.674483, 0.000641, 0.001899, 0.000851, 0.016000, -0.048000, -1.040000, -17.955147, -11.726699, -34.619766, -3.112357, -0.014471, -2.614130
149329461.675491, -0.004755, 0.000065, 0.000236, 0.016000, -0.016000, -1.040000, -17.945936, -11.707890, -34.604904, -3.112681, -0.014492, -2.613804
149329461.676554, -0.001665, -0.000534, 0.001128, 0.016000, -0.016000, -1.040000, -17.974932, -11.713250, -34.593014, -3.112968, -0.014506, -2.613504
149329461.677567, 0.005546, -0.002616, -0.000092, -0.000000, -0.016000, -1.056000, -17.998127, -11.717539, -34.583504, -3.113187, -0.014194, -2.612936
149329461.678588, -0.004438, -0.004654, -0.001884, -0.000000, -0.016000, -1.056000, -18.016684, -11.720970, -34.575893, -3.113500, -0.013867, -2.612366
149329461.679611, -0.000158, -0.004556, 0.000846, 0.016000, -0.032000, -1.056000, -18.031528, -11.723715, -34.569805, -3.113458, -0.013847, -2.612521
149329461.680631, 0.005526, 0.000324, 0.004118, 0.016000, -0.032000, -1.056000, -18.043406, -11.705503, -34.564934, -3.113359, -0.013875, -2.612726
149329461.681702, 0.001822, -0.000580, 0.003134, -0.000000, -0.048000, -1.024000, -18.052906, -11.690932, -34.561039, -3.112964, -0.013594, -2.613171
149329461.682707, 0.003578, -0.002063, 0.000377, -0.000000, -0.048000, -1.024000, -18.060507, -11.679276, -34.557922, -3.112562, -0.013306, -2.613591
149329461.683727, -0.002478, -0.004710, 0.000668, 0.016000, -0.032000, -1.024000, -18.030224, -11.731176, -34.537247, -3.112543, -0.013305, -2.613746
149329461.684791, -0.001230, 0.001967, 0.001850, 0.016000, -0.032000, -1.024000, -18.005997, -11.772696, -34.520706, -3.112512, -0.013371, -2.613867
149329461.685800, 0.002085, 0.001029, -0.000880, -0.000000, -0.032000, -1.040000, -17.986616, -11.805912, -34.507473, -3.112459, -0.013114, -2.613648
149329461.686817, 0.001742, 0.000708, -0.001758, -0.000000, -0.032000, -1.040000, -17.934748, -11.812077, -34.569614, -3.112411, -0.012859, -2.613395
149329461.687877, 0.003799, 0.001590, -0.001422, 0.016000, -0.032000, -1.040000, -17.893253, -11.817008, -34.619328, -3.112341, -0.012925, -2.613386
149329461.688894, -0.001962, 0.000959, 0.000103, 0.016000, -0.032000, -1.040000, -17.860058, -11.820953, -34.659100, -3.112331, -0.012983, -2.613375
149329461.689917, -0.003416, 0.001237, -0.000199, 0.016000, -0.032000, -1.040000, -17.851683, -11.762885, -34.654552, -3.112336, -0.013042, -2.613404
149329461.690984, -0.000952, 0.000613, 0.002497, 0.016000, -0.032000, -1.040000, -17.844982, -11.716431, -34.650913, -3.112315, -0.013095, -2.613496
149329461.691998, 0.002058, -0.002091, 0.002743, -0.000000, -0.016000, -1.024000, -17.839622, -11.679267, -34.648003, -3.112571, -0.012816, -2.612921
149329461.693010, 0.000520, 0.003036, -0.000604, -0.000000, -0.016000, -1.024000, -17.835335, -11.649536, -34.645676, -3.112838, -0.012593, -2.612349
149329461.694074, 0.003499, -0.000316, -0.001488, -0.000000, -0.048000, -1.056000, -17.868267, -11.646159, -34.571087, -3.112466, -0.012341, -2.612661
149329461.695089, 0.000136, -0.003599, -0.001158, -0.000000, -0.048000, -1.056000, -17.894613, -11.643458, -34.511414, -3.112137, -0.012062, -2.612982
149329461.696100, -0.001063, -0.001430, -0.002030, -0.000000, -0.032000, -1.040000, -17.915691, -11.641297, -34.463676, -3.112122, -0.011807, -2.612869
149329461.697142, -0.001937, -0.000503, -0.000493, -0.000000, -0.032000, -1.040000, -17.914371, -11.680385, -34.516396, -3.112117, -0.011566, -2.612741
149329461.698167, 0.004083, -0.001389, 0.002807, 0.016000, 0.000000, -1.024000, -17.913315, -11.711655, -34.558571, -3.112664, -0.011643, -2.612036
149329461.699202, 0.004296, -0.001958, -0.001139, 0.016000, 0.000000, -1.024000, -17.912470, -11.736670, -34.592312, -3.113197, -0.011714, -2.611285
149329461.700225, 0.000937, 0.000791, -0.002361, 0.016000, -0.064000, -1.024000, -17.893612, -11.736276, -34.564758, -3.112510, -0.011817, -2.612303
149329461.701249, 0.003309, -0.004010, 0.000081, -0.000000, -0.032000, -1.024000, -17.878527, -11.735959, -34.542717, -3.112434, -0.011541, -2.612143
149329461.702273, 0.000847, -0.001832, -0.001117, -0.000000, -0.032000, -1.024000, -17.866457, -11.735706, -34.525082, -3.112385, -0.011292, -2.611969
149329461.703344, 0.001427, -0.000299, -0.000795, 0.016000, -0.016000, -1.040000, -17.893166, -11.755912, -34.474609, -3.112646, -0.011373, -2.611610
149329461.704367, 0.002294, -0.001489, 0.000717, 0.016000, -0.016000, -1.040000, -17.914532, -11.772077, -34.434235, -3.112894, -0.011440, -2.611270
149329461.705389, -0.003136, 0.000038, -0.000793, 0.016000, -0.032000, -1.024000, -17.931625, -11.785008, -34.401932, -3.112875, -0.011525, -2.611365
149329461.706412, -0.002771, 0.000336, -0.001374, 0.016000, -0.032000, -1.024000, -17.945301, -11.795354, -34.376091, -3.112852, -0.011611, -2.611448
149329461.707437, 0.000277, -0.001465, -0.000149, -0.016000, -0.032000, -1.040000, -17.956242, -11.844446, -34.409966, -3.112815, -0.011056, -2.610966
149329461.708461, 0.000870, 0.000360, -0.001342, -0.016000, -0.032000, -1.040000, -17.964993, -11.883720, -34.437065, -3.112774, -0.010531, -2.610455
149329461.709484, 0.001150, -0.000545, 0.000779, 0.016000, -0.032000, -1.040000, -17.971994, -11.915139, -34.458744, -3.112724, -0.010621, -2.610479
149329461.710549, 0.000229, 0.001859, 0.002856, 0.016000, -0.032000, -1.040000, -18.013960, -11.899458, -34.512451, -3.112684, -0.010734, -2.610559
149329461.711570, 0.001121, -0.002367, 0.003095, -0.000000, -0.016000, -1.040000, -18.047531, -11.886913, -34.555416, -3.112946, -0.010498, -2.609978
149329461.712593, 0.000500, -0.002018, 0.003029, -0.000000, -0.016000, -1.040000, -18.074389, -11.876878, -34.589787, -3.113209, -0.010271, -2.609429
149329461.713616, 0.003479, -0.000480, -0.000921, 0.016000, -0.016000, -1.040000, -18.023148, -11.828032, -34.635468, -3.113433, -0.010371, -2.609129
149329461.714648, -0.002275, -0.001068, 0.000593, 0.016000, -0.016000, -1.040000, -17.982155, -11.788957, -34.672012, -3.113711, -0.010461, -2.608862
149329461.715682, -0.004918, -0.001046, -0.000914, 0.016000, -0.048000, -1.024000, -17.949360, -11.757696, -34.701248, -3.113383, -0.010560, -2.609493
149329461.716719, 0.001763, -0.001921, -0.000596, 0.016000, -0.048000, -1.024000, -17.923124, -11.732688, -34.724636, -3.112994, -0.010647, -2.610125
149329461.717745, 0.000231, -0.000983, 0.000014, 0.016000, -0.048000, -1.024000, -17.902136, -11.712681, -34.743347, -3.112629, -0.010742, -2.610759
149329461.718772, -0.001269, 0.002626, -0.002677, 0.016000, -0.048000, -1.024000, -17.885345, -11.696675, -34.758316, -3.112286, -0.010872, -2.611360
149329461.719797, -0.002139, 0.003168, -0.001126, 0.016000, -0.016000, -1.024000, -17.871912, -11.683871, -34.770290, -3.112581, -0.011001, -2.611075
149329461.720820, -0.001795, -0.000187, -0.001102, 0.016000, -0.016000, -1.024000, -17.879349, -11.734852, -34.743504, -3.112866, -0.011094, -2.610757
149329461.721891, 0.000336, 0.000116, 0.000715, 0.016000, -0.032000, -1.024000, -17.885298, -11.775637, -34.722076, -3.112812, -0.011186, -2.610873
149329461.722914, -0.001166, 0.000113, -0.000197, 0.016000, -0.032000, -1.024000, -17.890057, -11.808265, -34.704933, -3.112775, -0.011275, -2.610953
149329461.723937, -0.003235, 0.001606, -0.000492, 0.016000, -0.032000, -1.040000, -17.893864, -11.773143, -34.691219, -3.112769, -0.011374, -2.611040
149329461.724959, 0.001019, -0.000521, 0.001014, 0.016000, -0.032000, -1.040000, -17.896910, -11.745045, -34.680248, -3.112720, -0.011448, -2.611165
149329461.725982, 0.002493, -0.003500, -0.001699, -0.000000, -0.032000, -1.040000, -17.899345, -11.722567, -34.671471, -3.112658, -0.011185, -2.611020
149329461.727005, -0.007128, 0.000162, -0.003158, -0.000000, -0.032000, -1.040000, -17.883112, -11.663768, -34.664448, -3.112694, -0.010964, -2.610906
149329461.728073, -0.000698, -0.001337, -0.004287, 0.016000, -0.016000, -1.056000, -17.870127, -11.616729, -34.658833, -3.112976, -0.011037, -2.610624
149329461.729095, -0.000983, 0.001681, -0.001207, 0.016000, -0.016000, -1.056000, -17.859737, -11.579098, -34.654339, -3.113255, -0.011137, -2.610407
149329461.730117, -0.000364, 0.000450, 0.001509, 0.016000, -0.016000, -1.056000, -17.851427, -11.548992, -34.650745, -3.113522, -0.011223, -2.610241
149329461.731143, -0.000057, -0.003447, -0.000017, -0.016000, -0.016000, -1.024000, -17.935688, -11.667766, -34.647869, -3.113781, -0.010656, -2.609480
149329461.732164, -0.000056, -0.000982, 0.000581, -0.016000, -0.016000, -1.024000, -18.003096, -11.762784, -34.645569, -3.114035, -0.010125, -2.608700
149329461.733185, -0.003344, 0.001431, 0.001466, 0.016000, -0.032000, -1.040000, -18.057022, -11.838799, -34.643726, -3.114005, -0.010244, -2.608874
149329461.734258, -0.000583, -0.000692, -0.000359, 0.016000, -0.032000, -1.040000, -17.991072, -11.838386, -34.624073, -3.113949, -0.010339, -2.608994
149329461.735278, 0.008400, 0.000518, 0.001741, 0.016000, -0.032000, -1.040000, -17.938313, -11.838056, -34.608349, -3.113802, -0.010445, -2.609108
149329461.736298, 0.001944, -0.000689, 0.000210, 0.016000, -0.032000, -1.040000, -17.896105, -11.837791, -34.595772, -3.113724, -0.010536, -2.609184
149329461.737325, -0.000190, 0.000821, -0.000393, 0.016000, -0.016000, -1.040000, -17.935066, -11.755947, -34.585709, -3.113975, -0.010643, -2.608908
149329461.738348, -0.003475, 0.001102, 0.000214, 0.016000, -0.016000, -1.040000, -17.966234, -11.690472, -34.577660, -3.114254, -0.010750, -2.608711
149329461.739371, -0.001608, -0.000117, -0.000090, 0.016000, -0.032000, -1.056000, -17.991169, -11.638092, -34.571220, -3.114212, -0.010837, -2.608981
149329461.740446, -0.000378, 0.002577, -0.000985, 0.016000, -0.032000, -1.056000, -17.992935, -11.637004, -34.620613, -3.114158, -0.010951, -2.609240
149329461.741472, 0.003517, 0.001625, 0.002026, -0.000000, -0.032000, -1.056000, -17.994349, -11.636134, -34.660126, -3.114065, -0.010748, -2.609277
149329461.742492, 0.003742, -0.002894, -0.001605, -0.000000, -0.032000, -1.056000, -17.995480, -11.635438, -34.691738, -3.113973, -0.010504, -2.609278
149329461.743513, -0.001719, -0.004029, -0.001571, 0.016000, -0.016000, -1.040000, -17.996384, -11.634881, -34.717026, -3.114234, -0.010563, -2.609115
149329461.744643, -0.000803, 0.001163, -0.001571, 0.016000, -0.016000, -1.040000, -18.051653, -11.593619, -34.664532, -3.114482, -0.010673, -2.609013
149329461.745564, -0.000497, 0.000858, -0.001571, -0.000000, -0.016000, -1.040000, -18.095867, -11.560610, -34.622536, -3.114723, -0.010469, -2.608704
149329461.746585, -0.000802, -0.000058, 0.000262, -0.000000, -0.016000, -1.040000, -18.131239, -11.534203, -34.588940, -3.114962, -0.010261, -2.608456
149329461.747650, 0.000114, 0.001469, 0.001178, 0.032000, -0.032000, -1.040000, -18.123173, -11.553893, -34.543880, -3.114885, -0.010687, -2.609127
149329461.748663, 0.003168, -0.000975, 0.000262, 0.032000, -0.032000, -1.040000, -18.116720, -11.569645, -34.507832, -3.114778, -0.011079, -2.609758
149329461.749672, 0.005305, -0.001280, -0.001571, 0.016000, -0.032000, -1.056000, -18.111559, -11.582247, -34.478992, -3.114657, -0.011149, -2.610090
149329461.750726, -0.002025, 0.002385, -0.001571, 0.016000, -0.032000, -1.056000, -18.107430, -11.633144, -34.492287, -3.114612, -0.011254, -2.610373
149329461.751750, 0.003473, 0.000858, -0.000044, 0.016000, -0.032000, -1.040000, -18.104126, -11.673862, -34.502922, -3.114502, -0.011346, -2.610649
149329461.752776, 0.006832, -0.000059, 0.001789, 0.016000, -0.032000, -1.040000, -18.101482, -11.706437, -34.511429, -3.114360, -0.011426, -2.610910
149329461.753800, 0.002861, 0.000247, -0.000960, 0.016000, -0.032000, -1.008000, -18.026640, -11.752905, -34.500053, -3.114242, -0.011518, -2.611101
149329461.754872, -0.002637, 0.000552, -0.001265, 0.016000, -0.032000, -1.008000, -17.966766, -11.790079, -34.490952, -3.114182, -0.011611, -2.611227
149329461.755897, -0.001720, 0.002079, -0.003403, 0.016000, -0.032000, -1.056000, -17.918867, -11.819818, -34.483669, -3.114143, -0.011703, -2.611230
149329461.756920, -0.004469, 0.002384, -0.003402, 0.016000, -0.032000, -1.056000, -17.880548, -11.843610, -34.477844, -3.114131, -0.011797, -2.611196
149329461.757944, -0.000193, -0.002197, -0.001570, 0.016000, -0.032000, -1.056000, -17.849894, -11.801418, -34.509548, -3.114077, -0.011841, -2.611200
149329461.758967, -0.000193, 0.000857, -0.003402, 0.032000, -0.032000, -1.024000, -17.825369, -11.767665, -34.534912, -3.114008, -0.012239, -2.611486
149329461.759989, 0.000113, 0.000857, -0.000348, 0.032000, -0.032000, -1.024000, -17.805750, -11.740663, -34.555202, -3.113937, -0.012628, -2.611811
149329461.761010, 0.001640, -0.001892, -0.001875, 0.016000, -0.016000, -1.040000, -17.844601, -11.780285, -34.571434, -3.114166, -0.012667, -2.611404
149329461.762085, 0.001945, -0.000670, 0.000263, 0.016000, -0.016000, -1.040000, -17.875681, -11.811983, -34.584419, -3.114385, -0.012717, -2.611017
149329461.763108, -0.002636, -0.000364, -0.000958, -0.000000, -0.032000, -1.040000, -17.900545, -11.837341, -34.594807, -3.114342, -0.012459, -2.610788
149329461.764130, -0.005995, 0.003300, -0.002180, -0.000000, -0.032000, -1.040000, -17.847710, -11.837220, -34.603119, -3.114334, -0.012243, -2.610527
149329461.765151, 0.003473, 0.003606, -0.000958, -0.000000, -0.032000, -1.040000, -17.805441, -11.837123, -34.609768, -3.114231, -0.012034, -2.610263
149329461.766172, 0.004999, 0.001773, 0.000569, -0.000000, -0.032000, -1.040000, -17.771626, -11.837046, -34.615086, -3.114115, -0.011811, -2.610002
149329461.767192, 0.004693, 0.001162, 0.002707, 0.016000, -0.032000, -1.024000, -17.744574, -11.836984, -34.619343, -3.113992, -0.011897, -2.610033
149329461.768227, 0.001944, -0.000060, -0.001264, 0.016000, -0.032000, -1.024000, -17.795658, -11.877750, -34.568203, -3.113899, -0.011972, -2.610013
149329461.769254, -0.006302, 0.002383, -0.002485, 0.032000, -0.032000, -1.040000, -17.836527, -11.910363, -34.527290, -3.113904, -0.012372, -2.610203
149329461.770326, 0.000112, 0.003910, -0.000652, 0.032000, -0.032000, -1.040000, -17.869221, -11.936454, -34.494560, -3.113843, -0.012781, -2.610400
149329461.771348, 0.001029, 0.002077, -0.001568, 0.016000, -0.032000, -1.040000, -17.895376, -11.936918, -34.541103, -3.113773, -0.012854, -2.610352
149329461.772371, -0.003553, -0.002199, -0.002179, 0.016000, -0.032000, -1.040000, -17.916302, -11.937290, -34.578339, -3.113750, -0.012883, -2.610308
149329461.773412, -0.002025, -0.001893, -0.000041, 0.016000, -0.016000, -1.040000, -17.933041, -11.937588, -34.608124, -3.114020, -0.012916, -2.609868
149329461.774441, -0.002025, -0.001282, 0.001181, 0.016000, -0.016000, -1.040000, -17.964615, -11.897009, -34.595589, -3.114283, -0.012955, -2.609497
149329461.775466, -0.003246, 0.000551, 0.000264, 0.016000, -0.032000, -1.024000, -17.989874, -11.864546, -34.585564, -3.114237, -0.013013, -2.609606
149329461.776491, -0.005689, 0.003299, -0.001263, 0.016000, -0.032000, -1.024000, -18.010080, -11.838575, -34.577541, -3.114217, -0.013099, -2.609729
149329461.777512, -0.005689, 0.003910, 0.002708, 0.032000, -0.032000, -1.088000, -17.953520, -11.756575, -34.534760, -3.114236, -0.013464, -2.610094
149329461.778535, 0.003473, 0.002993, 0.001181, 0.032000, -0.032000, -1.088000, -17.908270, -11.690974, -34.500534, -3.114163, -0.013812, -2.610467
149329461.779558, -0.002635, 0.003299, -0.000041, 0.016000, -0.016000, -1.040000, -17.872070, -11.638494, -34.473156, -3.114430, -0.013878, -2.610230
149329461.780631, -0.004773, 0.002077, -0.001263, 0.016000, -0.016000, -1.040000, -17.843111, -11.596509, -34.451252, -3.114715, -0.013932, -2.610004
149329461.781663, -0.002329, 0.001160, -0.000041, 0.016000, -0.048000, -1.040000, -17.838125, -11.644554, -34.451912, -3.114355, -0.013978, -2.610630
149329461.782651, -0.000191, 0.001771, -0.001263, 0.016000, -0.048000, -1.040000, -17.834137, -11.682990, -34.452438, -3.113979, -0.014028, -2.611197
149329461.783681, 0.000420, 0.000855, -0.000346, -0.000000, -0.032000, -1.040000, -17.830946, -11.713739, -34.452862, -3.113913, -0.013757, -2.611035
149329461.784708, 0.002863, 0.001465, 0.000570, -0.000000, -0.032000, -1.040000, -17.864758, -11.738338, -34.544109, -3.113824, -0.013496, -2.610884
149329461.785770, 0.001030, 0.003298, -0.000652, -0.000000, -0.032000, -1.024000, -17.891806, -11.758018, -34.617107, -3.113745, -0.013260, -2.610738
149329461.786796, 0.002252, 0.002686, 0.001486, 0.016000, -0.016000, -1.024000, -17.913445, -11.773761, -34.675503, -3.113966, -0.013336, -2.610438
149329461.787820, -0.001108, 0.001465, -0.000041, 0.016000, -0.016000, -1.024000, -17.894392, -11.786356, -34.594948, -3.114217, -0.013398, -2.610107
149329461.788846, 0.001030, -0.000368, 0.002097, -0.000000, -0.032000, -1.024000, -17.879150, -11.796432, -34.530502, -3.114130, -0.013126, -2.609963
149329461.789869, 0.000724, -0.000063, 0.000570, -0.000000, -0.032000, -1.024000, -17.866957, -11.804492, -34.478947, -3.114048, -0.012862, -2.609792
149329461.790894, -0.003551, 0.002381, -0.002485, 0.032000, -0.016000, -1.040000, -17.857203, -11.810941, -34.528610, -3.114326, -0.013245, -2.609653
149329461.791966, -0.000802, -0.001284, -0.001873, 0.032000, -0.016000, -1.040000, -17.849398, -11.816099, -34.568344, -3.114572, -0.013583, -2.609514
149329461.792991, -0.000497, -0.000673, 0.000875, 0.016000, -0.032000, -1.056000, -17.843155, -11.820227, -34.600128, -3.114512, -0.013607, -2.609561
149329461.794015, 0.001641, 0.002381, 0.002402, 0.016000, -0.032000, -1.056000, -17.838160, -11.823528, -34.625557, -3.114432, -0.013661, -2.609619
149329461.795039, 0.003473, 0.001159, 0.002097, 0.016000, -0.016000, -1.024000, -17.888710, -11.887394, -34.645901, -3.114627, -0.013713, -2.609245
149329461.796062, 0.001335, -0.000674, -0.000347, 0.016000, -0.016000, -1.024000, -17.929150, -11.938487, -34.662174, -3.114840, -0.013747, -2.608833
149329461.797085, -0.004468, 0.001770, 0.000569, 0.016000, -0.032000, -1.040000, -17.961502, -11.979362, -34.675194, -3.114805, -0.013797, -2.608839
149329461.798108, 0.000114, 0.001769, 0.001180, 0.016000, -0.032000, -1.040000, -17.914656, -11.869204, -34.703793, -3.114724, -0.013846, -2.608918
149329461.799178, 0.001641, -0.000369, -0.001263, 0.016000, -0.032000, -1.040000, -17.877180, -11.781077, -34.726669, -3.114630, -0.013873, -2.609023
149329461.800200, -0.001413, 0.000548, 0.000264, 0.016000, -0.032000, -1.040000, -17.847198, -11.710576, -34.744972, -3.114568, -0.013909, -2.609187
149329461.801223, -0.000192, 0.000548, 0.001180, 0.032000, -0.032000, -1.040000, -17.859577, -11.674583, -34.668705, -3.114499, -0.014252, -2.609634
149329461.802237, -0.001413, -0.002812, 0.001180, 0.032000, -0.032000, -1.040000, -17.869480, -11.645789, -34.607693, -3.114443, -0.014554, -2.610096
149329461.803264, 0.001336, -0.000063, -0.000958, 0.016000, -0.016000, -1.040000, -17.877403, -11.622754, -34.558880, -3.114665, -0.014571, -2.609873
149329461.804298, -0.000192, 0.001769, 0.001180, 0.016000, -0.016000, -1.040000, -17.901922, -11.665550, -34.556194, -3.114897, -0.014606, -2.609654
149329461.805326, 0.000114, 0.001769, 0.001180, 0.016000, -0.032000, -1.024000, -17.921537, -11.699787, -34.554047, -3.114805, -0.014645, -2.609870
149329461.806351, 0.000725, 0.002685, 0.002096, 0.016000, -0.032000, -1.024000, -17.937229, -11.727177, -34.552330, -3.114709, -0.014691, -2.610077
149329461.807424, 0.000114, 0.000853, 0.001180, 0.016000, -0.016000, -1.040000, -17.949783, -11.749088, -34.550957, -3.114937, -0.014715, -2.609811
149329461.808449, 0.004389, -0.000675, 0.000263, 0.016000, -0.016000, -1.040000, -17.941645, -11.787025, -34.586220, -3.115118, -0.014723, -2.609506
149329461.809472, -0.001719, -0.001285, -0.000958, 0.016000, -0.048000, -1.008000, -17.935135, -11.817375, -34.614429, -3.114714, -0.014739, -2.610091
149329461.810489, 0.001335, 0.002685, 0.000569, 0.016000, -0.048000, -1.008000, -17.929926, -11.841656, -34.636997, -3.114287, -0.014794, -2.610659
149329461.811509, -0.000803, -0.002202, 0.000263, -0.000000, -0.032000, -1.008000, -17.871214, -11.820264, -34.636871, -3.114208, -0.014476, -2.610478
149329461.812534, 0.002557, 0.002074, 0.003317, -0.000000, -0.032000, -1.008000, -17.824244, -11.803150, -34.636768, -3.114096, -0.014206, -2.610323
149329461.813602, -0.000498, 0.004517, -0.000348, 0.032000, -0.032000, -1.024000, -17.786667, -11.789459, -34.636688, -3.114029, -0.014594, -2.610627
149329461.814630, 0.002862, 0.002379, -0.000043, 0.032000, -0.032000, -1.024000, -17.738424, -11.839730, -34.618443, -3.113928, -0.014951, -2.610865
149329461.815663, 0.005916, -0.002813, 0.002095, 0.032000, -0.032000, -1.024000, -17.699831, -11.879948, -34.603844, -3.113798, -0.015247, -2.611068
149329461.816701, -0.004163, -0.001286, -0.002181, -0.000000, -0.048000, -1.056000, -17.668957, -11.912122, -34.592167, -3.113488, -0.014930, -2.611079
149329461.817724, -0.004774, 0.000547, -0.002486, -0.000000, -0.048000, -1.056000, -17.644257, -11.937860, -34.582825, -3.113190, -0.014638, -2.611052
149329461.818745, -0.008438, 0.001463, -0.001264, 0.016000, -0.032000, -1.072000, -17.624496, -11.958451, -34.575352, -3.113246, -0.014659, -2.610814
149329461.819768, 0.002863, -0.000064, 0.000874, 0.016000, -0.032000, -1.072000, -17.608688, -11.974924, -34.569374, -3.113187, -0.014663, -2.610581
149329461.820794, 0.000725, -0.000675, -0.000959, 0.016000, -0.016000, -1.024000, -17.596043, -11.988103, -34.564590, -3.113436, -0.014679, -2.609931
149329461.821817, 0.004695, 0.001157, 0.003317, 0.016000, -0.016000, -1.024000, -17.640471, -11.917013, -34.578945, -3.113638, -0.014712, -2.609417
149329461.822840, 0.001335, -0.001286, -0.001570, -0.000000, -0.048000, -1.040000, -17.676012, -11.860141, -34.590427, -3.113261, -0.014407, -2.609535
149329461.823912, 0.004694, 0.000241, -0.000348, -0.000000, -0.048000, -1.040000, -17.704447, -11.814643, -34.599613, -3.112854, -0.014123, -2.609715
149329461.824932, 0.000724, -0.000675, 0.001179, 0.016000, -0.016000, -1.040000, -17.690830, -11.819061, -34.588783, -3.113114, -0.014144, -2.609275
149329461.825955, 0.006526, -0.001286, 0.001790, 0.016000, -0.016000, -1.040000, -17.679937, -11.822596, -34.580116, -3.113310, -0.014158, -2.608841
149329461.826977, 0.004388, -0.004034, -0.001264, -0.000000, -0.016000, -1.040000, -17.671223, -11.825423, -34.573185, -3.113529, -0.013840, -2.608109
149329461.827998, 0.002555, 0.001158, -0.002791, -0.000000, -0.016000, -1.040000, -17.718796, -11.786869, -34.549458, -3.113762, -0.013579, -2.607432
149329461.829025, -0.003554, 0.003296, -0.004929, -0.000000, -0.032000, -1.056000, -17.756855, -11.756026, -34.530476, -3.113750, -0.013342, -2.607216
149329461.830094, -0.001721, -0.000370, 0.000569, -0.000000, -0.032000, -1.056000, -17.787302, -11.731352, -34.515289, -3.113720, -0.013071, -2.607095
149329461.831118, 0.000723, -0.001286, 0.001485, 0.016000, -0.032000, -1.040000, -17.811661, -11.711612, -34.503139, -3.113655, -0.013104, -2.607283
149329461.832137, -0.004469, -0.001591, -0.000958, 0.016000, -0.032000, -1.040000, -17.831146, -11.736636, -34.438877, -3.113643, -0.013134, -2.607431
149329461.833154, -0.002331, 0.000852, -0.001874, 0.032000, -0.016000, -1.056000, -17.846735, -11.756656, -34.387466, -3.113922, -0.013487, -2.607365
149329461.834178, -0.003552, 0.000547, 0.001791, 0.032000, -0.016000, -1.056000, -17.859207, -11.772672, -34.346336, -3.114208, -0.013828, -2.607329
149329461.835243, -0.000803, 0.002379, 0.002401, 0.016000, -0.048000, -1.040000, -17.869184, -11.785484, -34.386162, -3.113842, -0.013888, -2.607928
149329461.836263, 0.001945, 0.001157, -0.001874, 0.016000, -0.048000, -1.040000, -17.877167, -11.795734, -34.418022, -3.113455, -0.013935, -2.608468
149329461.837291, -0.000193, 0.000241, 0.001180, -0.000000, -0.032000, -1.040000, -17.883553, -11.803934, -34.443508, -3.113406, -0.013658, -2.608327
149329461.838314, -0.000498, 0.000241, 0.000263, -0.000000, -0.032000, -1.040000, -17.834114, -11.810494, -34.482079, -3.113360, -0.013387, -2.608151
149329461.839338, -0.000193, 0.002379, -0.000347, 0.016000, -0.048000, -1.024000, -17.794563, -11.815742, -34.512936, -3.112991, -0.013460, -2.608676
149329461.840361, 0.001029, 0.002989, -0.002791, 0.016000, -0.048000, -1.024000, -17.762924, -11.819941, -34.537621, -3.112617, -0.013539, -2.609149
149329461.841386, -0.001414, 0.000240, -0.000042, 0.016000, 0.016000, -1.040000, -17.719431, -11.884524, -34.539188, -3.113517, -0.013606, -2.607849
149329461.842459, -0.006301, -0.000676, 0.000264, 0.032000, 0.000000, -1.040000, -17.684635, -11.936191, -34.540443, -3.114139, -0.013951, -2.607188
149329461.843481, 0.001030, -0.002203, 0.000264, 0.032000, 0.000000, -1.040000, -17.656799, -11.977524, -34.541447, -3.114671, -0.014274, -2.606495
149329461.844503, -0.001108, 0.000852, -0.000042, 0.016000, -0.016000, -1.040000, -17.634531, -12.010591, -34.542248, -3.114913, -0.014308, -2.605927
149329461.845529, -0.001719, 0.003905, 0.000874, 0.016000, -0.016000, -1.040000, -17.671261, -11.955411, -34.506527, -3.115156, -0.014372, -2.605442
149329461.846551, -0.002635, 0.002683, -0.002180, 0.016000, -0.032000, -1.024000, -17.700645, -11.911267, -34.477947, -3.115088, -0.014424, -2.605430
149329461.847573, -0.001719, 0.002683, 0.001180, 0.016000, -0.032000, -1.024000, -17.724154, -11.875953, -34.455086, -3.115011, -0.014474, -2.605490
149329461.848645, 0.000419, 0.004821, 0.001791, 0.016000, -0.032000, -1.024000, -17.670233, -11.929334, -34.473160, -3.114914, -0.014547, -2.605489
149329461.849628, 0.003168, 0.001461, 0.001485, 0.016000, -0.032000, -1.024000, -17.627096, -11.972038, -34.487617, -3.114792, -0.014581, -2.605428
149329461.850659, 0.000724, -0.000983, -0.000042, 0.016000, -0.016000, -1.024000, -17.592587, -12.006202, -34.499184, -3.115008, -0.014595, -2.604873
149329461.851691, 0.000419, 0.000850, -0.001264, 0.016000, -0.016000, -1.024000, -17.583160, -11.972308, -34.526619, -3.115223, -0.014628, -2.604341
149329461.852767, 0.002251, 0.003904, 0.000569, -0.000000, -0.032000, -1.024000, -17.575619, -11.945193, -34.548569, -3.115104, -0.014375, -2.604024
149329461.853788, 0.000113, 0.001766, 0.001485, -0.000000, -0.032000, -1.024000, -17.569586, -11.923502, -34.566128, -3.115010, -0.014104, -2.603736
149329461.854809, -0.003246, 0.000849, -0.001264, -0.000000, -0.016000, -1.040000, -17.582941, -11.885740, -34.507446, -3.115271, -0.013835, -2.603013
149329461.855832, 0.001335, -0.001289, -0.001569, -0.000000, -0.016000, -1.040000, -17.593626, -11.855531, -34.460503, -3.115481, -0.013550, -2.602329
149329461.856853, 0.003473, 0.000544, 0.002707, -0.000000, -0.016000, -1.024000, -17.602173, -11.831364, -34.422947, -3.115660, -0.013287, -2.601732
149329461.857889, 0.001945, 0.000544, 0.002096, -0.000000, -0.016000, -1.024000, -17.609011, -11.812030, -34.392902, -3.115850, -0.013029, -2.601160
149329461.858954, -0.002941, -0.000067, -0.000653, 0.016000, -0.048000, -1.040000, -17.632664, -11.816971, -34.441593, -3.115474, -0.013081, -2.601716
149329461.859937, -0.000192, 0.001460, -0.001264, 0.016000, -0.048000, -1.040000, -17.651587, -11.820924, -34.480549, -3.115077, -0.013146, -2.602263
149329461.861003, -0.000192, -0.000067, -0.002180, 0.016000, -0.016000, -1.056000, -17.666723, -11.824086, -34.511711, -3.115306, -0.013188, -2.601910
149329461.862030, 0.004083, -0.001594, -0.002485, 0.016000, -0.016000, -1.056000, -17.678833, -11.765391, -34.500278, -3.115488, -0.013213, -2.601613
149329461.863054, 0.001029, 0.000849, -0.002179, 0.032000, -0.016000, -1.040000, -17.688520, -11.718435, -34.491131, -3.115692, -0.013573, -2.601633
149329461.864081, -0.002025, 0.004209, -0.002790, 0.032000, -0.016000, -1.040000, -17.696272, -11.680871, -34.483814, -3.115924, -0.013959, -2.601679
149329461.865104, -0.001414, 0.002681, -0.002179, 0.016000, -0.032000, -1.040000, -17.702473, -11.691636, -34.459778, -3.115837, -0.014016, -2.601904
149329461.866133, 0.003167, 0.001765, 0.003013, 0.016000, -0.032000, -1.040000, -17.707434, -11.700248, -34.440548, -3.115705, -0.014060, -2.602170
149329461.867156, 0.003167, 0.001459, -0.000957, 0.016000, -0.016000, -1.056000, -17.711401, -11.707137, -34.425167, -3.115888, -0.014098, -2.601946
149329461.868180, -0.001109, 0.002070, -0.002484, 0.016000, -0.016000, -1.056000, -17.714575, -11.712648, -34.412861, -3.116110, -0.014142, -2.601707
149329461.869253, 0.001029, -0.000985, -0.002484, -0.000000, -0.032000, -1.040000, -17.717115, -11.819098, -34.403015, -3.115995, -0.013849, -2.601567
149329461.870274, -0.002636, 0.000543, -0.000346, -0.000000, -0.032000, -1.040000, -17.719147, -11.904259, -34.395138, -3.115919, -0.013577, -2.601384
149329461.871294, -0.001109, 0.000237, -0.004011, -0.000000, -0.032000, -1.040000, -17.720772, -11.972386, -34.388836, -3.115831, -0.013308, -2.601113
149329461.872312, -0.000803, -0.000985, -0.001262, -0.000000, -0.016000, -1.040000, -17.740253, -11.884031, -34.383797, -3.116050, -0.013036, -2.600522
149329461.873333, -0.001414, -0.001901, -0.000651, -0.000000, -0.016000, -1.040000, -17.755838, -11.813348, -34.379765, -3.116271, -0.012759, -2.600013
149329461.874405, 0.002251, -0.000373, -0.000040, 0.032000, -0.016000, -1.024000, -17.768307, -11.756801, -34.376537, -3.116442, -0.013124, -2.600104
149329461.875433, -0.004163, 0.004208, 0.001792, 0.032000, -0.016000, -1.024000, -17.723736, -11.711563, -34.373959, -3.116675, -0.013528, -2.600227
149329461.876458, -0.003857, 0.005429, -0.000651, 0.032000, -0.016000, -1.024000, -17.688080, -11.675373, -34.371895, -3.116900, -0.013936, -2.600335
149329461.877481, 0.000724, 0.002985, -0.001567, 0.032000, -0.016000, -1.024000, -17.659555, -11.646421, -34.370243, -3.117076, -0.014311, -2.600441
149329461.878502, 0.001335, -0.000680, -0.001872, 0.032000, -0.048000, -1.040000, -17.673100, -11.745708, -34.405285, -3.116638, -0.014643, -2.601315
149329461.879524, -0.007522, -0.000985, -0.003094, 0.032000, -0.048000, -1.040000, -17.683935, -11.825138, -34.433319, -3.116297, -0.014964, -2.602100
149329461.880546, 0.001030, -0.005261, 0.000571, 0.032000, -0.016000, -1.056000, -17.692602, -11.888682, -34.455746, -3.116488, -0.015218, -2.601990
149329461.881616, 0.001336, 0.001764, 0.001182, 0.032000, -0.016000, -1.056000, -17.699537, -11.939517, -34.473686, -3.116672, -0.015538, -2.601854
149329461.882606, 0.003473, 0.004207, 0.001793, 0.016000, -0.032000, -1.040000, -17.723267, -11.878144, -34.506222, -3.116522, -0.015575, -2.601974
149329461.883637, -0.007521, 0.002069, -0.000040, 0.016000, -0.032000, -1.040000, -17.742250, -11.829046, -34.532249, -3.116484, -0.015593, -2.602123
149329461.884669, -0.002634, -0.000680, -0.001261, 0.016000, -0.016000, -1.024000, -17.757437, -11.789767, -34.553074, -3.116700, -0.015588, -2.601876
149329461.885694, -0.002329, 0.004512, -0.000040, 0.016000, -0.016000, -1.024000, -17.751404, -11.819569, -34.551552, -3.116909, -0.015635, -2.601621
149329461.886725, 0.000726, 0.003900, -0.000956, -0.000000, -0.032000, -1.024000, -17.746578, -11.843410, -34.550331, -3.116771, -0.015362, -2.601513
149329461.887795, -0.003855, 0.000846, -0.001261, -0.000000, -0.032000, -1.024000, -17.742718, -11.862484, -34.549355, -3.116685, -0.015064, -2.601386
149329461.888818, -0.001412, 0.002984, -0.000039, 0.016000, -0.016000, -1.024000, -17.775993, -11.857334, -34.512211, -3.116884, -0.015106, -2.601121
149329461.889843, -0.000495, 0.000540, -0.001261, 0.016000, -0.016000, -1.024000, -17.802612, -11.853214, -34.482494, -3.117071, -0.015123, -2.600865
149329461.890866, 0.000115, -0.001292, -0.000955, 0.016000, -0.032000, -1.040000, -17.823908, -11.849918, -34.458721, -3.116945, -0.015116, -2.601046
149329461.891891, 0.000115, 0.000846, 0.001793, 0.016000, -0.032000, -1.040000, -17.750036, -11.908506, -34.476067, -3.116822, -0.015129, -2.601169
149329461.892913, -0.001717, 0.004510, 0.000266, -0.000000, -0.016000, -1.008000, -17.690939, -11.955377, -34.489944, -3.117022, -0.014875, -2.600527
149329461.893982, -0.001411, 0.001150, -0.000650, -0.000000, -0.016000, -1.008000, -17.643660, -11.992873, -34.501045, -3.117215, -0.014593, -2.599833
149329461.895003, 0.002559, 0.002067, -0.001261, 0.016000, -0.032000, -1.056000, -17.605837, -12.022870, -34.509926, -3.117073, -0.014624, -2.599772
149329461.896028, 0.002254, -0.000682, -0.001261, 0.016000, -0.032000, -1.056000, -17.648306, -11.965235, -34.462486, -3.116935, -0.014628, -2.599778
149329461.897054, 0.006834, 0.000540, 0.001182, 0.016000, -0.016000, -1.056000, -17.682281, -11.919127, -34.424534, -3.117056, -0.014645, -2.599440
149329461.898078, 0.003474, 0.000540, -0.000039, 0.016000, -0.016000, -1.056000, -17.709461, -11.882240, -34.394173, -3.117209, -0.014662, -2.599138
149329461.899103, 0.001336, -0.000377, -0.000955, 0.016000, -0.016000, -1.056000, -17.749388, -11.893547, -34.406246, -3.117380, -0.014670, -2.598844
149329461.900129, -0.001107, 0.000234, 0.001488, 0.016000, -0.048000, -1.040000, -17.781328, -11.902593, -34.415905, -3.116953, -0.014692, -2.599466
149329461.901153, -0.006299, -0.002209, 0.002404, 0.016000, -0.048000, -1.040000, -17.806881, -11.909829, -34.423634, -3.116586, -0.014689, -2.600090
149329461.902224, -0.000496, -0.002820, -0.001261, 0.016000, -0.048000, -1.056000, -17.790960, -11.874803, -34.429817, -3.116184, -0.014675, -2.600662
149329461.903247, -0.002023, -0.001292, 0.000571, 0.016000, -0.048000, -1.056000, -17.778223, -11.846781, -34.434765, -3.115804, -0.014677, -2.601259
149329461.904270, -0.000190, -0.001292, -0.000650, -0.000000, -0.032000, -1.008000, -17.768034, -11.824364, -34.438721, -3.115687, -0.014370, -2.601198
149329461.905293, 0.003169, 0.001762, 0.002709, -0.000000, -0.032000, -1.008000, -17.741699, -11.806430, -34.423702, -3.115539, -0.014100, -2.601173
149329461.906313, 0.004696, 0.000845, -0.000040, 0.016000, -0.016000, -1.040000, -17.720633, -11.792083, -34.411690, -3.115705, -0.014135, -2.600925
149329461.907341, 0.000420, -0.000376, -0.000345, 0.016000, -0.016000, -1.040000, -17.703779, -11.780605, -34.402081, -3.115911, -0.014158, -2.600678
149329461.908365, -0.002329, 0.001456, -0.001872, 0.016000, -0.016000, -1.024000, -17.690296, -11.771423, -34.394390, -3.116135, -0.014203, -2.600433
149329461.909438, 0.003169, 0.007259, 0.001793, 0.016000, -0.016000, -1.024000, -17.697691, -11.764077, -34.424603, -3.116298, -0.014308, -2.600242
149329461.910453, -0.004467, 0.002066, 0.001487, 0.032000, -0.032000, -1.040000, -17.703608, -11.758201, -34.448772, -3.116237, -0.014658, -2.600724
149329461.911473, -0.005688, -0.003737, 0.000265, 0.032000, -0.032000, -1.040000, -17.708342, -11.753499, -34.468109, -3.116189, -0.014944, -2.601190
149329461.912498, -0.004466, -0.003736, -0.000651, 0.016000, -0.016000, -1.056000, -17.748491, -11.790554, -34.447216, -3.116439, -0.014912, -2.600939
149329461.913520, -0.001106, -0.000071, -0.000345, 0.016000, -0.016000, -1.056000, -17.780611, -11.820198, -34.430500, -3.116650, -0.014917, -2.600689
149329461.914592, -0.004465, 0.004510, -0.001261, 0.016000, -0.016000, -1.040000, -17.806307, -11.843914, -34.417126, -3.116888, -0.014975, -2.600439
149329461.915615, -0.000800, 0.004509, -0.002788, 0.016000, -0.016000, -1.040000, -17.790501, -11.781254, -34.442791, -3.117082, -0.015030, -2.600222
149329461.916608, -0.003854, 0.000539, -0.000956, -0.000000, -0.032000, -1.024000, -17.777855, -11.731126, -34.463326, -3.116985, -0.014735, -2.600247
149329461.917641, 0.001339, -0.001599, 0.000571, -0.000000, -0.032000, -1.024000, -17.767738, -11.691023, -34.479752, -3.116839, -0.014425, -2.600315
149329461.918671, 0.001644, 0.000539, 0.001182, -0.000000, -0.032000, -1.024000, -17.759645, -11.658941, -34.492893, -3.116692, -0.014142, -2.600412
149329461.919700, 0.001949, 0.001150, 0.002098, -0.000000, -0.032000, -1.024000, -17.771353, -11.735316, -34.485226, -3.116545, -0.013870, -2.600458
149329461.920772, -0.001411, -0.000378, 0.000571, 0.032000, -0.032000, -1.040000, -17.780718, -11.796416, -34.479092, -3.116449, -0.014205, -2.600932
149329461.921795, -0.000800, 0.000539, 0.001182, 0.032000, -0.032000, -1.040000, -17.788210, -11.845296, -34.474182, -3.116348, -0.014542, -2.601367
149329461.922819, 0.001949, 0.001455, 0.002098, -0.000000, -0.016000, -1.024000, -17.812386, -11.843584, -34.470257, -3.116524, -0.014268, -2.600883
149329461.923841, -0.001411, -0.000378, -0.000040, -0.000000, -0.016000, -1.024000, -17.831726, -11.842215, -34.467113, -3.116731, -0.013981, -2.600396
149329461.924866, -0.000494, 0.000233, 0.001487, 0.032000, -0.032000, -1.008000, -17.847198, -11.841119, -34.464600, -3.116602, -0.014339, -2.600917
149329461.925891, 0.001033, -0.002516, 0.001792, 0.032000, -0.032000, -1.008000, -17.823214, -11.779017, -34.444408, -3.116462, -0.014663, -2.601467
149329461.926915, -0.003548, -0.002210, -0.002178, 0.032000, -0.032000, -1.008000, -17.804026, -11.729337, -34.428253, -3.116370, -0.014984, -2.601998
149329461.927990, -0.002021, 0.001455, -0.000651, 0.016000, -0.016000, -1.040000, -17.788675, -11.689592, -34.415329, -3.116588, -0.015008, -2.601841
149329461.929014, 0.003477, -0.003431, 0.000876, 0.016000, -0.016000, -1.040000, -17.758213, -11.678205, -34.441353, -3.116745, -0.014982, -2.601697
149329461.930038, 0.001338, -0.000682, 0.001181, 0.016000, -0.016000, -1.056000, -17.733843, -11.669094, -34.462173, -3.116925, -0.014978, -2.601544
149329461.931062, -0.001410, -0.000377, 0.000876, 0.016000, -0.016000, -1.056000, -17.714348, -11.661806, -34.478828, -3.117130, -0.014979, -2.601388
149329461.932083, -0.001410, 0.002066, -0.000957, -0.000000, -0.016000, -1.024000, -17.698751, -11.655975, -34.492153, -3.117324, -0.014702, -2.600967
149329461.933102, 0.001033, 0.002066, -0.000651, -0.000000, -0.016000, -1.024000, -17.686274, -11.794168, -34.539177, -3.117490, -0.014431, -2.600439
149329461.934127, -0.002632, 0.002066, -0.003705, -0.000000, -0.016000, -1.024000, -17.676292, -11.904722, -34.576797, -3.117691, -0.014167, -2.599798
149329461.935190, 0.000117, 0.003593, -0.000956, -0.000000, -0.016000, -1.024000, -17.668306, -11.993166, -34.606892, -3.117860, -0.013924, -2.599122
149329461.936209, 0.002866, -0.001294, 0.001487, 0.032000, -0.016000, -1.024000, -17.625555, -11.921063, -34.576424, -3.117992, -0.014257, -2.599056
149329461.937234, -0.000189, -0.001294, -0.001567, 0.032000, -0.016000, -1.024000, -17.591352, -11.863381, -34.552048, -3.118154, -0.014584, -2.598988
149329461.938259, 0.003171, 0.002065, 0.000876, 0.016000, -0.032000, -1.024000, -17.563992, -11.817236, -34.532547, -3.117966, -0.014626, -2.599147
149329461.939281, 0.004087, 0.001454, 0.000265, 0.016000, -0.032000, -1.024000, -17.560284, -11.841544, -34.498764, -3.117773, -0.014660, -2.599274
149329461.940351, 0.000421, 0.001760, -0.001262, 0.016000, -0.016000, -1.040000, -17.557318, -11.860991, -34.471737, -3.117937, -0.014695, -2.598917
149329461.941374, -0.001411, 0.002370, -0.001567, 0.016000, -0.016000, -1.040000, -17.554945, -11.876548, -34.450115, -3.118117, -0.014734, -2.598550
149329461.942395, 0.001949, 0.001148, -0.001567, -0.000000, -0.032000, -1.040000, -17.607592, -11.929810, -34.469185, -3.117953, -0.014451, -2.598340
149329461.943415, 0.002865, 0.002065, 0.000571, -0.000000, -0.032000, -1.040000, -17.649710, -11.972419, -34.484440, -3.117784, -0.014182, -2.598143
149329461.944435, -0.004160, -0.001600, -0.001872, 0.016000, -0.032000, -1.040000, -17.683405, -12.006507, -34.496643, -3.117687, -0.014190, -2.598176
149329461.945505, -0.000800, -0.000684, -0.000039, 0.016000, -0.032000, -1.040000, -17.710360, -12.033777, -34.506405, -3.117558, -0.014207, -2.598219
149329461.946530, -0.001105, 0.002981, -0.001261, 0.032000, -0.032000, -1.040000, -17.695560, -11.892328, -34.496033, -3.117438, -0.014569, -2.598605
149329461.947553, -0.002327, 0.001759, 0.000266, 0.032000, -0.032000, -1.040000, -17.683722, -11.779169, -34.487736, -3.117333, -0.014912, -2.599083
149329461.948575, -0.002327, -0.000990, -0.000345, 0.016000, -0.032000, -1.024000, -17.674250, -11.688642, -34.481098, -3.117217, -0.014917, -2.599384
149329461.949598, 0.001338, -0.001295, 0.002404, 0.016000, -0.032000, -1.024000, -17.666672, -11.697852, -34.475788, -3.117066, -0.014918, -2.599695
149329461.950629, 0.001644, -0.000379, 0.000571, 0.016000, -0.032000, -1.040000, -17.660610, -11.705220, -34.471539, -3.116925, -0.014924, -2.599955
149329461.951661, 0.003476, -0.000990, -0.000040, 0.016000, -0.032000, -1.040000, -17.655762, -11.711115, -34.468140, -3.116768, -0.014924, -2.600197
149329461.952694, -0.000800, -0.001600, 0.000266, 0.032000, -0.032000, -1.024000, -17.688246, -11.715831, -34.465420, -3.116652, -0.015235, -2.600715
149329461.953719, -0.002327, 0.000232, 0.000571, 0.032000, -0.032000, -1.024000, -17.714233, -11.719604, -34.463245, -3.116554, -0.015559, -2.601236
149329461.954743, 0.000422, 0.000843, -0.000345, 0.032000, -0.032000, -1.024000, -17.735023, -11.722622, -34.461506, -3.116429, -0.015882, -2.601744
149329461.955768, 0.001033, -0.004043, 0.001182, -0.000000, -0.032000, -1.024000, -17.751656, -11.725037, -34.460114, -3.116297, -0.015524, -2.601751
149329461.956840, -0.002327, -0.000378, -0.001872, -0.000000, -0.032000, -1.024000, -17.764961, -11.726968, -34.459000, -3.116203, -0.015210, -2.601732
149329461.957864, -0.005381, 0.000843, -0.000345, 0.032000, -0.032000, -1.040000, -17.775606, -11.728513, -34.458111, -3.116154, -0.015531, -2.602223
149329461.958890, 0.003782, -0.000073, 0.000266, 0.032000, -0.032000, -1.040000, -17.784121, -11.729749, -34.457397, -3.116013, -0.015835, -2.602713
149329461.959915, -0.000494, 0.000538, 0.000877, -0.000000, -0.048000, -1.056000, -17.772751, -11.710330, -34.438644, -3.115618, -0.015528, -2.603138
149329461.960929, -0.006602, 0.000538, -0.001872, -0.000000, -0.048000, -1.056000, -17.763655, -11.694795, -34.423641, -3.115291, -0.015227, -2.603535
149329461.961952, -0.001715, 0.001759, -0.001566, 0.032000, -0.032000, -1.040000, -17.756378, -11.682366, -34.411640, -3.115223, -0.015556, -2.604004
149329461.963023, -0.003853, 0.001454, -0.001872, 0.032000, -0.032000, -1.040000, -17.786921, -11.733648, -34.438404, -3.115180, -0.015877, -2.604434
149329461.964047, -0.001104, -0.000379, -0.000955, 0.016000, -0.048000, -1.040000, -17.811356, -11.774673, -34.459816, -3.114797, -0.015869, -2.605042
149329461.965070, 0.003172, 0.003897, -0.000650, 0.016000, -0.048000, -1.040000, -17.830902, -11.807494, -34.476944, -3.114378, -0.015904, -2.605624
149329461.966094, 0.001950, -0.002212, 0.000572, 0.016000, -0.048000, -1.040000, -17.773813, -11.792934, -34.436100, -3.113981, -0.015876, -2.606189
149329461.967117, 0.001645, -0.000073, 0.002404, 0.016000, -0.048000, -1.040000, -17.728142, -11.781286, -34.403427, -3.113593, -0.015869, -2.606748
149329461.968141, 0.001339, -0.000379, 0.001182, 0.016000, -0.016000, -1.024000, -17.691605, -11.771968, -34.377289, -3.113827, -0.015862, -2.606412
149329461.969175, -0.000188, 0.000232, -0.000650, 0.016000, -0.016000, -1.024000, -17.662374, -11.764513, -34.356377, -3.114072, -0.015862, -2.606055
149329461.970199, -0.002631, -0.004044, -0.000345, 0.016000, -0.048000, -1.040000, -17.657173, -11.676917, -34.357830, -3.113726, -0.015817, -2.606641
149329461.971269, 0.001950, 0.002370, -0.000650, 0.016000, -0.048000, -1.040000, -17.653011, -11.606840, -34.358990, -3.113341, -0.015839, -2.607270
149329461.972606, -0.000493, 0.000538, -0.001872, 0.016000, -0.032000, -1.040000, -17.649681, -11.652819, -34.378101, -3.113298, -0.015837, -2.607383
149329461.973465, 0.000728, -0.003433, 0.000877, 0.016000, -0.032000, -1.040000, -17.665199, -11.689602, -34.393391, -3.113242, -0.015799, -2.607503
149329461.974349, 0.001950, 0.001149, 0.001183, 0.016000, -0.016000, -1.056000, -17.677614, -11.719028, -34.405621, -3.113489, -0.015798, -2.607164
149329461.975375, 0.001644, -0.000989, 0.000266, 0.016000, -0.016000, -1.056000, -17.687546, -11.742570, -34.415405, -3.113732, -0.015777, -2.606811
149329461.976400, -0.002937, -0.002211, -0.000955, 0.048000, -0.016000, -1.008000, -17.695492, -11.740994, -34.405052, -3.114004, -0.016390, -2.606998
149329461.977424, -0.001105, 0.000538, -0.000039, 0.048000, -0.016000, -1.008000, -17.701849, -11.739735, -34.396770, -3.114253, -0.017018, -2.607194
149329461.978450, 0.003782, 0.001454, 0.001182, 0.016000, -0.032000, -1.024000, -17.706934, -11.738727, -34.390144, -3.114136, -0.017004, -2.607322
149329461.979472, 0.000117, 0.000538, -0.000955, 0.016000, -0.032000, -1.024000, -17.729183, -11.758328, -34.348480, -3.114060, -0.016983, -2.607417
149329461.980545, -0.001105, 0.003286, -0.001566, 0.016000, -0.032000, -1.024000, -17.746983, -11.774010, -34.315147, -3.113998, -0.016991, -2.607499
149329461.981568, -0.002632, 0.003286, 0.000572, 0.016000, -0.032000, -1.024000, -17.761223, -11.786554, -34.288483, -3.113951, -0.016996, -2.607598
149329461.982588, -0.000188, 0.001758, -0.000650, -0.000000, -0.016000, -1.024000, -17.772615, -11.796591, -34.267151, -3.114199, -0.016678, -2.606975
149329461.983612, 0.000117, 0.001758, 0.002404, -0.000000, -0.016000, -1.024000, -17.799911, -11.825027, -34.377357, -3.114437, -0.016365, -2.606388
149329461.984643, 0.007447, -0.000380, 0.000877, -0.000000, -0.016000, -1.024000, -17.821747, -11.847777, -34.465523, -3.114597, -0.016037, -2.605791
149329461.985665, 0.001643, -0.002212, 0.000266, -0.000000, -0.032000, -1.024000, -17.839216, -11.865977, -34.536057, -3.114497, -0.015694, -2.605637
149329461.986696, 0.001338, -0.001296, -0.000650, -0.000000, -0.032000, -1.024000, -17.835009, -11.839721, -34.501572, -3.114402, -0.015367, -2.605496
149329461.987720, -0.001716, 0.000537, 0.001182, -0.000000, -0.032000, -1.040000, -17.831644, -11.818715, -34.473984, -3.114349, -0.015064, -2.605378
149329461.988745, -0.001105, 0.000842, -0.000345, -0.000000, -0.032000, -1.040000, -17.828951, -11.801911, -34.451916, -3.114290, -0.014772, -2.605259
149329461.989816, 0.001949, 0.001453, -0.000650, -0.000000, -0.032000, -1.024000, -17.790434, -11.788468, -34.397896, -3.114192, -0.014492, -2.605143
149329461.990839, -0.002022, 0.000231, -0.002483, -0.000000, -0.032000, -1.024000, -17.759621, -11.777714, -34.354679, -3.114137, -0.014205, -2.605004
149329461.991861, 0.001032, 0.001758, 0.002099, -0.000000, -0.016000, -1.040000, -17.734970, -11.769110, -34.320107, -3.114372, -0.013941, -2.604458
149329461.992884, -0.005992, 0.002674, 0.001182, -0.000000, -0.016000, -1.040000, -17.733431, -11.843860, -34.310631, -3.114672, -0.013692, -2.603853
149329461.993907, -0.003853, 0.000842, 0.001182, -0.000000, -0.016000, -1.040000, -17.732199, -11.903659, -34.303051, -3.114946, -0.013430, -2.603212
149329461.994929, -0.000799, 0.002063, -0.000040, -0.000000, -0.016000, -1.040000, -17.731215, -11.951499, -34.296986, -3.115184, -0.013186, -2.602532
149329461.996000, -0.001715, 0.001757, 0.000877, -0.000000, -0.032000, -1.040000, -17.730427, -11.989771, -34.292133, -3.115116, -0.012940, -2.602275
149329461.997022, 0.002866, 0.002368, -0.003704, -0.000000, -0.032000, -1.040000, -17.729795, -11.959164, -34.342796, -3.115004, -0.012705, -2.602003
149329461.998057, 0.000117, -0.001908, 0.000572, 0.016000, -0.032000, -1.040000, -17.729292, -11.934678, -34.383327, -3.114919, -0.012739, -2.602061
149329461.999083, -0.006602, -0.000075, 0.001488, 0.016000, -0.032000, -1.040000, -17.728888, -11.915090, -34.415752, -3.114904, -0.012791, -2.602143
149329462.000109, 0.004088, 0.001146, 0.000571, -0.016000, -0.016000, -1.040000, -17.764929, -11.858603, -34.459873, -3.115101, -0.012244, -2.601303
149329462.001135, 0.005004, 0.002673, 0.000571, -0.016000, -0.016000, -1.040000, -17.793762, -11.813413, -34.495171, -3.115283, -0.011722, -2.600533
149329462.002160, -0.003243, 0.002062, 0.002709, 0.032000, 0.000000, -1.040000, -17.816828, -11.777261, -34.523411, -3.115839, -0.012127, -2.600228
149329462.003181, -0.005380, 0.004811, 0.002404, 0.032000, 0.000000, -1.040000, -17.798918, -11.748340, -34.509640, -3.116404, -0.012551, -2.599939
149329462.004202, 0.000117, -0.000687, 0.000266, 0.016000, -0.048000, -1.056000, -17.784590, -11.725203, -34.498623, -3.115999, -0.012603, -2.600655
149329462.005275, -0.001104, 0.001756, -0.001567, 0.016000, -0.048000, -1.056000, -17.773127, -11.706693, -34.489807, -3.115615, -0.012679, -2.601347
149329462.006297, 0.001034, 0.001756, -0.000956, -0.000000, -0.016000, -1.024000, -17.782137, -11.712293, -34.519119, -3.115815, -0.012446, -2.600923
149329462.007321, -0.004158, -0.000687, 0.001182, -0.000000, -0.016000, -1.024000, -17.789347, -11.716773, -34.542568, -3.116062, -0.012192, -2.600529
149329462.008343, 0.000118, 0.002061, 0.003931, 0.016000, -0.048000, -1.024000, -17.795115, -11.720357, -34.561329, -3.115635, -0.012288, -2.601331
149329462.009368, -0.000493, 0.000229, -0.000345, 0.016000, -0.048000, -1.024000, -17.799728, -11.723225, -34.576336, -3.115224, -0.012364, -2.602073
149329462.010383, -0.000187, 0.003588, 0.001792, 0.016000, -0.032000, -1.008000, -17.821602, -11.725518, -34.588341, -3.115119, -0.012470, -2.602399
149329462.011454, 0.001645, 0.000534, 0.000265, 0.016000, -0.032000, -1.008000, -17.839100, -11.727353, -34.597946, -3.114997, -0.012544, -2.602709
149329462.012477, 0.003477, -0.000383, 0.001181, 0.016000, -0.032000, -1.040000, -17.853098, -11.728822, -34.605629, -3.114879, -0.012597, -2.602991
149329462.013501, 0.002561, -0.000688, -0.002789, 0.032000, -0.016000, -1.040000, -17.864296, -11.689180, -34.611774, -3.115081, -0.012953, -2.603085
149329462.014522, -0.001410, -0.004353, -0.003705, 0.032000, -0.016000, -1.040000, -17.873255, -11.657467, -34.616692, -3.115320, -0.013266, -2.603196
149329462.015543, -0.004158, -0.002214, -0.000040, 0.032000, -0.032000, -1.024000, -17.880423, -11.632096, -34.620625, -3.115268, -0.013605, -2.603812
149329462.016567, 0.001034, -0.002825, -0.001261, 0.032000, -0.032000, -1.024000, -17.904339, -11.713840, -34.623772, -3.115164, -0.013930, -2.604348
149329462.017637, 0.001034, -0.001603, -0.000956, 0.032000, -0.032000, -1.040000, -17.923471, -11.779236, -34.626289, -3.115070, -0.014251, -2.604813
149329462.018668, -0.001104, -0.001603, -0.000956, 0.032000, -0.032000, -1.040000, -17.938778, -11.831552, -34.628304, -3.115000, -0.014566, -2.605233
149329462.019701, -0.003547, 0.001146, 0.001488, -0.000000, -0.048000, -1.024000, -17.951023, -11.873405, -34.629917, -3.114629, -0.014289, -2.605612
149329462.020725, -0.001714, -0.000992, 0.001182, -0.000000, -0.048000, -1.024000, -17.906273, -11.988520, -34.613026, -3.114247, -0.013996, -2.605860
149329462.021749, -0.001103, -0.001297, -0.001872, 0.016000, -0.032000, -1.040000, -17.870474, -12.080612, -34.599510, -3.114190, -0.014011, -2.605773
149329462.022772, -0.000492, -0.000381, -0.000345, 0.016000, -0.032000, -1.040000, -17.841833, -12.154285, -34.588699, -3.114127, -0.014034, -2.605631
149329462.023796, 0.001951, 0.005727, -0.001261, -0.016000, -0.032000, -1.040000, -17.782558, -12.029551, -34.561871, -3.114051, -0.013503, -2.605015
149329462.024818, 0.001034, 0.002978, 0.000266, -0.016000, -0.032000, -1.040000, -17.735138, -11.929763, -34.540405, -3.113984, -0.012954, -2.604484
149329462.025842, -0.000798, 0.001756, 0.000571, 0.016000, -0.048000, -1.040000, -17.697201, -11.849933, -34.523235, -3.113622, -0.013024, -2.604994
149329462.026915, -0.001409, 0.002672, -0.000345, 0.016000, -0.048000, -1.040000, -17.721397, -11.888109, -34.582226, -3.113274, -0.013104, -2.605465
149329462.027939, 0.003783, 0.002061, -0.002177, 0.032000, -0.048000, -1.040000, -17.740755, -11.918651, -34.629417, -3.112887, -0.013483, -2.606137
149329462.028952, -0.005685, 0.004198, -0.002177, 0.032000, -0.048000, -1.040000, -17.756241, -11.943084, -34.667171, -3.112601, -0.013876, -2.606785
149329462.029989, -0.001714, -0.002521, -0.001566, 0.016000, -0.016000, -1.024000, -17.786812, -11.921814, -34.679192, -3.112885, -0.013889, -2.606354
149329462.031005, -0.000492, -0.001604, -0.000650, 0.016000, -0.016000, -1.024000, -17.811268, -11.904799, -34.688808, -3.113152, -0.013910, -2.605966
149329462.032023, 0.001340, -0.001910, 0.002099, -0.000000, -0.016000, -1.024000, -17.830833, -11.891186, -34.696503, -3.113399, -0.013616, -2.605362
149329462.033082, 0.002867, 0.001145, 0.002710, -0.000000, -0.016000, -1.024000, -17.846485, -11.880296, -34.702656, -3.113624, -0.013359, -2.604795
149329462.034095, 0.001034, -0.000382, -0.001566, 0.016000, 0.000000, -1.008000, -17.859007, -11.891992, -34.671215, -3.114172, -0.013416, -2.604044
149329462.035139, -0.001103, 0.002672, -0.000039, 0.016000, 0.000000, -1.008000, -17.869024, -11.901348, -34.646065, -3.114731, -0.013502, -2.603322
149329462.036162, -0.000187, -0.000688, 0.000877, 0.016000, -0.016000, -1.040000, -17.877037, -11.908834, -34.625942, -3.114962, -0.013534, -2.603028
149329462.037193, -0.006295, -0.000993, 0.001488, 0.016000, -0.016000, -1.040000, -17.901630, -11.935230, -34.591663, -3.115250, -0.013562, -2.602736
149329462.038250, -0.000186, 0.000839, 0.001793, 0.016000, -0.032000, -1.024000, -17.921305, -11.956347, -34.564240, -3.115154, -0.013611, -2.602889
149329462.039266, -0.000492, 0.001450, 0.000266, 0.016000, -0.032000, -1.024000, -17.937044, -11.973241, -34.542301, -3.115063, -0.013666, -2.603017
149329462.040279, -0.002935, 0.002671, -0.000345, 0.016000, -0.032000, -1.008000, -17.895090, -11.945940, -34.597477, -3.114988, -0.013737, -2.603159
149329462.041341, 0.002257, 0.001449, 0.001488, 0.016000, -0.048000, -1.008000, -17.861526, -11.924099, -34.641617, -3.114546, -0.013800, -2.603775
149329462.042352, -0.001103, 0.002671, -0.001261, 0.016000, -0.048000, -1.008000, -17.834677, -11.906626, -34.676929, -3.114147, -0.013874, -2.604355
149329462.043364, -0.001408, -0.001300, 0.000571, -0.000000, -0.032000, -1.040000, -17.776833, -11.892648, -34.650635, -3.114096, -0.013583, -2.604169
149329462.044428, -0.003851, -0.002521, -0.002788, -0.000000, -0.032000, -1.040000, -17.730556, -11.881465, -34.629601, -3.114072, -0.013286, -2.603937
149329462.045440, 0.000425, -0.000689, -0.002788, 0.048000, -0.016000, -1.024000, -17.693537, -11.872519, -34.612770, -3.114309, -0.013950, -2.604051
149329462.046452, 0.001647, 0.000228, -0.002788, 0.048000, -0.016000, -1.024000, -17.663921, -11.865362, -34.599308, -3.114528, -0.014610, -2.604154
149329462.047514, 0.001952, -0.001605, -0.001261, -0.000000, -0.032000, -1.008000, -17.712955, -11.839229, -34.624901, -3.114415, -0.014301, -2.603993
149329462.048527, 0.006533, -0.001910, 0.000572, -0.000000, -0.032000, -1.008000, -17.752182, -11.818322, -34.645374, -3.114260, -0.013996, -2.603891
149329462.049540, 0.003784, 0.002060, 0.000877, 0.016000, -0.032000, -1.024000, -17.783564, -11.801597, -34.661755, -3.114144, -0.014049, -2.604075
149329462.050606, 0.001646, -0.000078, -0.000955, 0.016000, -0.032000, -1.024000, -17.826851, -11.829033, -34.620312, -3.114052, -0.014080, -2.604233
149329462.051634, 0.005921, -0.000688, 0.000266, 0.016000, -0.048000, -1.024000, -17.861481, -11.850982, -34.587158, -3.113607, -0.014109, -2.604846
149329462.052655, 0.001950, -0.000688, 0.002404, 0.016000, -0.048000, -1.024000, -17.889185, -11.868541, -34.560635, -3.113210, -0.014137, -2.605466
149329462.053673, 0.000728, 0.001755, 0.000572, -0.000000, -0.032000, -1.040000, -17.911348, -11.821363, -34.557598, -3.113156, -0.013871, -2.605382
149329462.054694, 0.003477, 0.000533, 0.002404, -0.000000, -0.032000, -1.040000, -17.929079, -11.783622, -34.555168, -3.113075, -0.013599, -2.605357
149329462.055758, 0.001644, -0.000078, 0.001487, -0.000000, -0.048000, -1.040000, -17.943264, -11.753428, -34.553226, -3.112703, -0.013330, -2.605805
149329462.056771, -0.003548, 0.001449, 0.001182, -0.000000, -0.048000, -1.040000, -17.954611, -11.770090, -34.551674, -3.112390, -0.013080, -2.606233
149329462.057788, 0.004698, 0.001754, 0.002709, -0.000000, -0.032000, -1.040000, -17.927324, -11.783419, -34.550430, -3.112313, -0.012835, -2.606193
149329462.058852, -0.002632, -0.001300, -0.001873, -0.000000, -0.032000, -1.040000, -17.905497, -11.794082, -34.549435, -3.112311, -0.012566, -2.606087
149329462.059867, -0.000188, 0.000533, -0.000956, 0.016000, -0.032000, -1.040000, -17.888033, -11.802612, -34.548637, -3.112284, -0.012628, -2.606236
