Using settings file RTIMULib.ini
IMU Name: L3GD20 + LSM303DLHC
IMU Init Succeeded
Recommended Poll Interval: 4mS

Time, gyroX, gyroY, gyroZ, accelX, accelY, accelZ, magX, magY, magZ, phi, theta, psi

149372955.342679, -0.001506, -0.001672, -0.003011, 0.059555, 0.000000, 0.997629, 2.700369, -4.378089, 9.862254, 0.000000, -0.059626, 1.122091

149372955.343471, -0.004465, -0.001637, 0.000043, 0.059555, -0.015483, 0.997629, 4.901736, -7.880561, 17.822029, -0.000345, -0.059636, 1.121745

149372955.344221, -0.001381, -0.001004, -0.000556, 0.059555, -0.015483, 0.997629, 6.662830, -10.682538, 24.189848, -0.000658, -0.059640, 1.121376

149372955.344965, -0.001650, -0.000385, 0.000054, 0.059555, -0.015483, 0.997629, 8.071706, -12.924120, 29.284103, -0.000967, -0.059640, 1.121007

149372955.346023, -0.005503, -0.001872, -0.002340, 0.044666, 0.000000, 0.982041, 9.198806, -14.717385, 33.359509, -0.000999, -0.059376, 1.120366

149372955.347042, -0.003593, -0.000637, -0.001692, 0.044666, 0.000000, 0.982041, 10.100486, -16.172405, 36.619831, -0.001010, -0.059104, 1.119751

149372955.348064, -0.002321, 0.001769, 0.000137, 0.014889, 0.000000, 0.982041, 10.821830, -17.336422, 39.228088, -0.000978, -0.058209, 1.118112

149372955.349084, -0.000478, 0.001133, -0.002258, 0.014889, 0.000000, 0.982041, 11.398906, -18.267635, 41.314697, -0.000928, -0.057338, 1.116486

149372955.350149, -0.000767, 0.001110, -0.001014, 0.044666, 0.000000, 0.982041, 11.881103, -18.992197, 43.030632, -0.000914, -0.057089, 1.115940

149372955.351169, -0.004040, 0.004375, 0.000801, 0.044666, 0.000000, 0.982041, 12.266860, -19.571848, 44.403378, -0.000933, -0.056813, 1.115407

149372955.352188, -0.005749, 0.003685, 0.001084, 0.029778, -0.015483, 0.982041, 12.575466, -20.035568, 45.501575, -0.001270, -0.056236, 1.114033

149372955.353206, -0.006226, 0.003010, -0.000434, 0.029778, -0.015483, 0.982041, 12.822351, -20.406544, 46.380135, -0.001604, -0.055678, 1.112662

149372955.354275, 0.000483, 0.000554, -0.001920, 0.029778, -0.015483, 0.997629, 12.999322, -20.764549, 47.013008, -0.001860, -0.055146, 1.111324

149372955.355294, 0.000772, 0.000543, -0.000684, 0.029778, -0.015483, 0.997629, 13.140899, -21.050953, 47.519306, -0.002109, -0.054627, 1.110051

149372955.356313, -0.001935, 0.002026, 0.000228, 0.014889, 0.000000, 0.982041, 13.254161, -21.280075, 47.924347, -0.002059, -0.053819, 1.108625

149372955.357331, -0.005782, -0.001007, -0.001571, 0.014889, 0.000000, 0.982041, 13.344770, -21.442966, 48.295029, -0.002048, -0.053057, 1.107218

149372955.358400, -0.006258, 0.000510, 0.001751, 0.029778, -0.015483, 0.982041, 13.417258, -21.573278, 48.591572, -0.002376, -0.052590, 1.106099

149372955.359419, -0.000744, 0.001695, -0.000379, 0.029778, -0.015483, 0.982041, 13.475248, -21.677528, 48.828808, -0.002639, -0.052120, 1.104984

149372955.360438, -0.006709, 0.000463, -0.000969, 0.029778, 0.000000, 0.982041, 13.501103, -21.699703, 48.971947, -0.002644, -0.051680, 1.104179

149372955.361458, 0.002403, -0.001042, -0.000351, 0.029778, 0.000000, 0.982041, 13.521788, -21.717443, 49.086460, -0.002559, -0.051264, 1.103392

149372955.362477, -0.003628, 0.001073, 0.001451, 0.029778, 0.000000, 0.982041, 13.538335, -21.731636, 49.178070, -0.002537, -0.050836, 1.102634

149372955.363541, -0.001459, -0.001042, 0.001719, 0.029778, 0.000000, 0.982041, 13.633718, -21.722582, 49.228035, -0.002494, -0.050437, 1.101825

149372955.364559, -0.001129, -0.001020, 0.000786, 0.014889, 0.000000, 0.982041, 13.710025, -21.715338, 49.268005, -0.002432, -0.049744, 1.100448

149372955.365578, 0.000689, 0.003486, -0.002519, 0.014889, 0.000000, 0.982041, 13.771070, -21.709543, 49.299980, -0.002351, -0.049019, 1.099021

149372955.366598, -0.002914, 0.003413, -0.003064, 0.014889, 0.000000, 0.982041, 13.819907, -21.704908, 49.325562, -0.002309, -0.048310, 1.097584

149372955.367663, 0.000437, 0.000351, -0.001804, 0.014889, 0.015516, 0.997629, 13.817904, -21.721607, 49.416000, -0.001928, -0.047648, 1.096483

149372955.368683, -0.004057, -0.001151, 0.000028, 0.014889, 0.015516, 0.997629, 13.816300, -21.734966, 49.488350, -0.001602, -0.047014, 1.095432

149372955.369697, -0.000085, 0.001863, -0.001468, 0.029778, 0.000000, 0.982041, 13.815019, -21.745655, 49.546230, -0.001564, -0.046662, 1.094624

149372955.370758, -0.001877, 0.001525, -0.003530, 0.029778, 0.000000, 0.982041, 13.793456, -21.795021, 49.569210, -0.001544, -0.046320, 1.093845

149372955.371778, 0.003245, -0.001199, 0.002525, 0.029778, -0.015483, 0.997629, 13.776206, -21.834515, 49.587593, -0.001784, -0.045996, 1.092854

149372955.372797, -0.003700, 0.000920, 0.002472, 0.029778, -0.015483, 0.997629, 13.762406, -21.866110, 49.602299, -0.002089, -0.045657, 1.091905

149372955.373817, -0.005117, 0.001797, -0.001468, 0.029778, -0.015483, 0.982041, 13.689757, -21.870977, 49.567417, -0.002407, -0.045326, 1.091000

149372955.374884, -0.007102, 0.001760, -0.000540, 0.029778, -0.015483, 0.982041, 13.631639, -21.874872, 49.539513, -0.002742, -0.045002, 1.090165

149372955.375906, 0.001120, -0.000072, 0.001565, 0.044666, 0.000000, 0.982041, 13.585143, -21.877987, 49.517189, -0.002676, -0.045012, 1.090243

149372955.376929, 0.002592, -0.000668, 0.000635, 0.044666, 0.000000, 0.982041, 13.630093, -21.921295, 49.592625, -0.002598, -0.045027, 1.090296

149372955.377952, -0.001948, 0.000243, 0.000023, 0.029778, 0.000000, 0.982041, 13.666052, -21.955942, 49.652973, -0.002562, -0.044731, 1.089793

149372955.378973, -0.002206, -0.000360, 0.003611, 0.029778, 0.000000, 0.982041, 13.694819, -21.983660, 49.701252, -0.002531, -0.044447, 1.089329

149372955.380038, 0.000531, 0.000844, 0.001442, 0.059555, 0.000000, 0.997629, 13.717834, -22.005833, 49.739876, -0.002471, -0.044741, 1.089900

149372955.381059, 0.001118, -0.000370, -0.000382, 0.059555, 0.000000, 0.997629, 13.777317, -21.982756, 49.724125, -0.002407, -0.045041, 1.090389

149372955.382079, 0.001729, 0.003295, 0.000228, 0.014889, -0.015483, 0.997629, 13.824904, -21.964294, 49.711525, -0.002630, -0.044397, 1.088944

149372955.383098, -0.002792, 0.001432, -0.004560, 0.014889, -0.015483, 0.997629, 13.862974, -21.949526, 49.701447, -0.002893, -0.043784, 1.087448

149372955.384117, -0.000939, -0.001888, -0.000278, 0.029778, -0.015483, 0.997629, 13.749676, -21.876486, 49.623413, -0.003149, -0.043519, 1.086593

149372955.385180, -0.001219, 0.000544, 0.000026, 0.029778, -0.015483, 0.997629, 13.659037, -21.818054, 49.560986, -0.003404, -0.043235, 1.085797

149372955.386198, -0.002688, 0.001729, -0.000572, 0.014889, 0.000000, 0.982041, 13.586525, -21.771309, 49.511044, -0.003349, -0.042658, 1.084836

149372955.387229, -0.003528, 0.002290, -0.002354, 0.014889, 0.000000, 0.982041, 13.672271, -21.774729, 49.541061, -0.003303, -0.042087, 1.083820

149372955.388248, 0.001031, 0.002840, -0.002603, 0.029778, 0.000000, 0.982041, 13.740867, -21.777464, 49.565075, -0.003223, -0.041824, 1.083298

149372955.389312, -0.001981, 0.001584, -0.002549, 0.029778, 0.000000, 0.982041, 13.795744, -21.779652, 49.584286, -0.003175, -0.041578, 1.082748

149372955.390331, -0.001640, 0.001551, -0.000701, 0.029778, -0.015483, 0.997629, 13.839645, -21.801811, 49.622978, -0.003433, -0.041323, 1.081887

149372955.391349, -0.000709, -0.002070, -0.003377, 0.029778, -0.015483, 0.997629, 13.874766, -21.819538, 49.653934, -0.003676, -0.041109, 1.081001

149372955.392368, -0.002787, -0.000830, -0.002409, 0.059555, 0.000000, 0.982041, 13.902864, -21.833719, 49.678699, -0.003624, -0.041505, 1.081534

149372955.393431, 0.000262, -0.000215, -0.001162, 0.059555, 0.000000, 0.982041, 13.925342, -21.845064, 49.698509, -0.003543, -0.041888, 1.082057

149372955.394448, 0.000256, -0.003499, 0.003646, 0.059555, -0.015483, 0.966453, 13.861178, -21.813324, 49.714359, -0.003789, -0.042317, 1.082404

149372955.395467, 0.002643, -0.001332, 0.001775, 0.059555, -0.015483, 0.966453, 13.809848, -21.787931, 49.727039, -0.004004, -0.042717, 1.082755

149372955.396490, -0.000104, -0.001304, -0.001252, 0.059555, -0.015483, 0.966453, 13.768784, -21.767618, 49.737183, -0.004242, -0.043108, 1.083092

149372955.397512, 0.002889, 0.000218, 0.000568, 0.029778, 0.000000, 0.966453, 13.715396, -21.792185, 49.791943, -0.004125, -0.042861, 1.082661

149372955.398572, -0.003750, 0.001708, -0.001836, 0.029778, 0.000000, 0.966453, 13.672686, -21.811838, 49.835751, -0.004079, -0.042603, 1.082252

149372955.399599, -0.005465, -0.002813, -0.001199, 0.014889, -0.015483, 0.982041, 13.638517, -21.827560, 49.870796, -0.004351, -0.042076, 1.081029

149372955.400622, 0.000032, -0.000361, 0.001517, 0.014889, -0.015483, 0.982041, 13.693328, -21.860546, 49.828861, -0.004563, -0.041534, 1.079834

149372955.401642, 0.001227, 0.002337, 0.002681, 0.029778, 0.000000, 0.997629, 13.737176, -21.886934, 49.795315, -0.004459, -0.041278, 1.079478

149372955.402664, 0.006284, -0.003094, 0.000831, 0.029778, 0.000000, 0.997629, 13.772255, -21.908045, 49.768478, -0.004305, -0.041081, 1.079094

149372955.403729, 0.000471, -0.000039, 0.000813, 0.029778, 0.000000, 0.982041, 13.800318, -21.924932, 49.747009, -0.004212, -0.040867, 1.078720

149372955.404748, 0.000461, -0.001533, 0.004085, 0.029778, 0.000000, 0.982041, 13.720086, -21.979259, 49.706509, -0.004123, -0.040671, 1.078463

149372955.405768, 0.000451, -0.001501, 0.001009, 0.044666, 0.000000, 0.997629, 13.655901, -22.022720, 49.674107, -0.004036, -0.040767, 1.078752

149372955.406787, -0.001352, -0.001170, -0.000806, 0.044666, 0.000000, 0.997629, 13.604553, -22.057489, 49.648186, -0.003968, -0.040858, 1.079066

149372955.407851, -0.000128, -0.000248, 0.001603, 0.014889, 0.000000, 1.013217, 13.584011, -21.983265, 49.604126, -0.003881, -0.040339, 1.078333

149372955.408869, 0.004659, -0.000243, 0.000672, 0.014889, 0.000000, 1.013217, 13.567577, -21.923885, 49.568878, -0.003748, -0.039830, 1.077593

149372955.409887, -0.001718, -0.002032, 0.001854, 0.029778, 0.000000, 0.997629, 13.554431, -21.876381, 49.540680, -0.003690, -0.039650, 1.077392

149372955.410951, 0.003102, -0.000195, 0.000918, 0.029778, 0.000000, 0.997629, 13.564450, -21.920010, 49.564770, -0.003583, -0.039457, 1.077196

149372955.411969, -0.000551, 0.002799, -0.000895, 0.029778, 0.000000, 0.997629, 13.572465, -21.954914, 49.584042, -0.003516, -0.039237, 1.076994

149372955.412987, 0.000058, -0.002044, -0.001175, 0.029778, 0.000000, 0.997629, 13.578877, -21.982838, 49.599457, -0.003444, -0.039070, 1.076799

149372955.414037, -0.005026, -0.003197, -0.000852, 0.029778, 0.000000, 0.982041, 13.604544, -21.923544, 49.588467, -0.003425, -0.038928, 1.076587

149372955.415068, -0.003425, -0.001635, -0.002329, 0.029778, 0.000000, 0.982041, 13.625076, -21.876108, 49.579674, -0.003389, -0.038773, 1.076332

149372955.416086, 0.000534, 0.001091, -0.000187, 0.044666, 0.000000, 0.966453, 13.641502, -21.838160, 49.572639, -0.003315, -0.038910, 1.076642

149372955.417102, -0.001570, 0.002563, -0.000482, 0.044666, 0.000000, 0.966453, 13.654643, -21.807800, 49.567013, -0.003263, -0.039029, 1.076922

149372955.418123, -0.005125, -0.001079, -0.000472, 0.044666, 0.000000, 0.966453, 13.685693, -21.783514, 49.632484, -0.003248, -0.039183, 1.077166

149372955.419192, 0.000963, 0.000139, 0.002827, 0.044666, 0.000000, 0.966453, 13.710532, -21.764084, 49.684860, -0.003174, -0.039321, 1.077417

149372955.420213, -0.002646, 0.000436, 0.000974, 0.044666, 0.000000, 0.997629, 13.730404, -21.748541, 49.726761, -0.003137, -0.039424, 1.077572

149372955.421237, -0.006477, 0.001323, -0.000243, 0.044666, 0.000000, 0.997629, 13.787374, -21.817738, 49.736958, -0.003139, -0.039517, 1.077697

149372955.422258, -0.006782, -0.001426, -0.001159, 0.029778, -0.015483, 0.950865, 13.832950, -21.873096, 49.745117, -0.003466, -0.039363, 1.077006

149372955.423279, -0.005742, 0.000996, -0.000836, 0.029778, -0.015483, 0.950865, 13.869411, -21.917383, 49.751644, -0.003777, -0.039187, 1.076324

149372955.424346, -0.002931, 0.001574, -0.001715, 0.029778, -0.015483, 0.950865, 13.836970, -21.891588, 49.733540, -0.004055, -0.039009, 1.075659

149372955.425366, 0.005204, 0.002138, -0.000483, 0.044666, 0.000000, 0.982041, 13.811018, -21.870953, 49.719055, -0.003921, -0.039116, 1.075848

149372955.426385, 0.001507, -0.000598, 0.000424, 0.044666, 0.000000, 0.982041, 13.790256, -21.854443, 49.707470, -0.003827, -0.039248, 1.076050

149372955.427406, 0.003269, -0.002080, -0.000781, 0.029778, 0.000000, 1.013217, 13.794183, -21.780010, 49.698200, -0.003716, -0.039073, 1.075636

149372955.428427, 0.003200, -0.003830, -0.003156, 0.029778, 0.000000, 1.013217, 13.797324, -21.720465, 49.690784, -0.003606, -0.038918, 1.075180

149372955.429494, -0.007631, 0.000735, -0.002791, 0.029778, 0.000000, 0.982041, 13.799837, -21.672829, 49.684853, -0.003611, -0.038739, 1.074747

149372955.430518, -0.000893, -0.001373, -0.000041, 0.029778, 0.000000, 0.982041, 13.801847, -21.634720, 49.680107, -0.003546, -0.038585, 1.074336

149372955.431539, -0.001173, -0.001045, 0.000259, 0.059555, 0.031033, 0.982041, 13.782920, -21.726681, 49.652988, -0.002842, -0.039013, 1.075591

149372955.432560, 0.000048, 0.000173, 0.000552, 0.059555, 0.031033, 0.982041, 13.767777, -21.800251, 49.631290, -0.002140, -0.039421, 1.076857

149372955.433581, 0.002738, 0.001365, 0.000242, 0.029778, 0.000000, 0.982041, 13.755664, -21.859106, 49.613934, -0.002069, -0.039225, 1.076525

149372955.434651, -0.000011, 0.003130, -0.001557, 0.029778, 0.000000, 0.982041, 13.745973, -21.844967, 49.576725, -0.002026, -0.039015, 1.076182

149372955.435673, 0.003876, -0.000822, -0.000329, 0.059555, -0.030966, 0.982041, 13.738219, -21.833654, 49.546959, -0.002574, -0.039456, 1.076366

149372955.436695, 0.001403, 0.001288, 0.001771, 0.059555, -0.030966, 0.982041, 13.732017, -21.824604, 49.523144, -0.003138, -0.039868, 1.076568

149372955.437721, 0.000775, 0.002756, 0.000239, 0.029778, -0.015483, 0.966453, 13.706518, -21.796957, 49.480770, -0.003385, -0.039655, 1.075955

149372955.438741, 0.000161, -0.000890, -0.001560, 0.029778, -0.015483, 0.966453, 13.686120, -21.774839, 49.446869, -0.003633, -0.039483, 1.075341

149372955.439765, 0.004045, -0.002068, -0.000929, 0.014889, -0.015483, 0.997629, 13.669801, -21.757145, 49.419750, -0.003816, -0.039006, 1.074203

149372955.440835, 0.002763, -0.002622, -0.001209, 0.014889, -0.015483, 0.997629, 13.697819, -21.824621, 49.514675, -0.004007, -0.038545, 1.073094

149372955.441856, 0.006891, -0.001670, 0.000312, 0.014889, 0.000000, 0.966453, 13.720233, -21.878603, 49.590614, -0.003850, -0.038101, 1.072358

149372955.442876, -0.003420, 0.000458, 0.000604, 0.014889, 0.000000, 0.966453, 13.738164, -21.921787, 49.651363, -0.003799, -0.037644, 1.071646

149372955.443897, -0.001853, 0.000449, 0.001788, 0.059555, 0.000000, 0.966453, 13.752509, -21.956335, 49.699963, -0.003732, -0.038115, 1.072600

149372955.444917, 0.002671, 0.001037, 0.000255, 0.059555, 0.000000, 0.966453, 13.722913, -21.983974, 49.668873, -0.003620, -0.038572, 1.073550

149372955.445983, -0.000674, 0.004603, 0.002044, 0.044666, -0.015483, 0.982041, 13.699235, -22.006084, 49.644001, -0.003870, -0.038661, 1.073645

149372955.447003, 0.002031, -0.002670, 0.002898, 0.044666, -0.015483, 0.982041, 13.680293, -22.023773, 49.624104, -0.004088, -0.038824, 1.073767

149372955.448024, -0.000703, -0.002613, 0.001940, 0.044666, -0.015483, 0.982041, 13.582994, -21.956291, 49.608185, -0.004329, -0.038983, 1.073921

149372955.449045, -0.002482, -0.000166, -0.001390, 0.044666, -0.015483, 0.982041, 13.505155, -21.902306, 49.595448, -0.004582, -0.039115, 1.074075

149372955.450066, -0.003327, 0.002528, -0.000763, 0.029778, 0.000000, 0.966453, 13.442883, -21.859118, 49.585258, -0.004523, -0.038924, 1.074024

149372955.451132, 0.003022, -0.000515, -0.001644, 0.029778, 0.000000, 0.966453, 13.495749, -21.926607, 49.623756, -0.004400, -0.038767, 1.073954

149372955.452152, 0.001165, -0.000803, -0.004001, 0.029778, 0.000000, 0.966453, 13.538040, -21.980598, 49.654556, -0.004299, -0.038617, 1.073854

149372955.453173, 0.000542, -0.000786, 0.002063, 0.044666, 0.000000, 0.950865, 13.571874, -22.023792, 49.679195, -0.004206, -0.038790, 1.074386

149372955.454193, -0.003057, -0.000471, -0.000971, 0.044666, 0.000000, 0.950865, 13.598941, -22.058348, 49.698906, -0.004150, -0.038957, 1.074871

149372955.455260, -0.004584, -0.000471, -0.001581, 0.044666, 0.000000, 1.013217, 13.600058, -22.045176, 49.691349, -0.004114, -0.039063, 1.075229

149372955.456281, 0.003286, -0.002255, 0.000246, 0.044666, 0.000000, 1.013217, 13.600951, -22.034637, 49.685303, -0.003998, -0.039184, 1.075595

149372955.457296, -0.000072, -0.003403, -0.001254, 0.044666, -0.015483, 0.997629, 13.601666, -22.026207, 49.680466, -0.004228, -0.039330, 1.075675

149372955.458324, 0.001425, -0.000641, 0.000566, 0.044666, -0.015483, 0.997629, 13.581702, -21.978647, 49.629951, -0.004439, -0.039445, 1.075766

149372955.459347, 0.004684, 0.003260, 0.003843, 0.029778, -0.015483, 0.982041, 13.565730, -21.940599, 49.589539, -0.004618, -0.039227, 1.075353

149372955.460369, -0.004684, 0.000500, 0.000174, 0.029778, -0.015483, 0.982041, 13.552953, -21.910160, 49.557209, -0.004886, -0.039041, 1.074908

149372955.461437, -0.007874, -0.000407, 0.001666, 0.044666, -0.015483, 0.966453, 13.604341, -21.947033, 49.554668, -0.005191, -0.039188, 1.075039

149372955.462458, -0.003822, 0.001096, 0.000734, 0.044666, -0.015483, 0.966453, 13.645451, -21.976532, 49.552635, -0.005446, -0.039317, 1.075138

149372955.463478, -0.001947, -0.000721, -0.000777, 0.029778, 0.000000, 0.982041, 13.678338, -22.000132, 49.551010, -0.005355, -0.039145, 1.074938

149372955.464498, 0.001084, 0.002284, 0.001631, 0.029778, 0.000000, 0.982041, 13.643039, -21.978195, 49.596359, -0.005237, -0.038946, 1.074782

149372955.465565, 0.002855, -0.000754, 0.004587, 0.044666, -0.015483, 0.982041, 13.614799, -21.960646, 49.632637, -0.005419, -0.039084, 1.074924

149372955.466587, 0.004888, 0.000757, 0.002398, 0.044666, -0.015483, 0.982041, 13.592208, -21.946606, 49.661659, -0.005577, -0.039204, 1.075050

149372955.467607, 0.003589, 0.004030, 0.002347, 0.014889, 0.000000, 0.982041, 13.574135, -21.935373, 49.684879, -0.005423, -0.038684, 1.074409

149372955.468628, -0.000075, 0.003646, 0.000803, 0.014889, 0.000000, 0.982041, 13.518604, -21.946796, 49.656803, -0.005308, -0.038179, 1.073807

149372955.469647, 0.002020, -0.001812, 0.000786, 0.029778, 0.000000, 0.982041, 13.474179, -21.955935, 49.634342, -0.005182, -0.038040, 1.073776

149372955.470711, -0.001910, -0.001176, -0.000427, 0.029778, 0.000000, 0.982041, 13.438640, -21.963245, 49.616375, -0.005099, -0.037898, 1.073761

149372955.471732, 0.000224, 0.000642, -0.001614, 0.029778, 0.000000, 0.997629, 13.471817, -21.928278, 49.648651, -0.004994, -0.037731, 1.073682

149372955.472753, -0.000379, -0.001763, 0.000214, 0.029778, 0.000000, 0.997629, 13.498359, -21.900303, 49.674473, -0.004898, -0.037592, 1.073594

149372955.473774, -0.000969, 0.000666, -0.000687, 0.044666, 0.000000, 0.982041, 13.519592, -21.877924, 49.695129, -0.004808, -0.037741, 1.074033

149372955.474796, -0.000052, 0.000652, 0.002317, 0.044666, 0.000000, 0.982041, 13.557116, -21.900837, 49.734978, -0.004711, -0.037888, 1.074478

149372955.475864, 0.000248, 0.002432, -0.001021, 0.044666, -0.015483, 0.997629, 13.587134, -21.919167, 49.766857, -0.004924, -0.038000, 1.074552

149372955.476886, -0.001551, -0.000011, -0.000999, 0.044666, -0.015483, 0.997629, 13.611149, -21.933830, 49.792358, -0.005151, -0.038135, 1.074615

149372955.477910, -0.003383, 0.000905, -0.000694, 0.044666, -0.061933, 0.966453, 13.589288, -21.986378, 49.696140, -0.006364, -0.038260, 1.073744

149372955.478932, -0.001219, 0.000587, 0.004404, 0.044666, -0.061933, 0.966453, 13.571799, -22.028416, 49.619167, -0.007533, -0.038388, 1.072976

149372955.479953, 0.000003, 0.002070, 0.002517, 0.044666, -0.061933, 0.966453, 13.557808, -22.062046, 49.557587, -0.008666, -0.038500, 1.072230

149372955.481023, 0.001224, 0.000237, -0.002370, 0.014889, 0.000000, 0.997629, 13.546615, -22.088951, 49.508324, -0.008473, -0.038028, 1.071666

149372955.482044, 0.000899, 0.002026, -0.002918, 0.014889, 0.000000, 0.997629, 13.537661, -22.008434, 49.515560, -0.008287, -0.037548, 1.071084

149372955.483064, 0.002376, -0.001305, 0.000732, 0.029778, 0.000000, 0.997629, 13.530498, -21.944021, 49.521351, -0.008098, -0.037407, 1.071043

149372955.484085, -0.000664, -0.002474, 0.001314, 0.029778, 0.000000, 0.997629, 13.524767, -21.892490, 49.525982, -0.007943, -0.037281, 1.070994

149372955.485105, -0.003043, -0.000030, -0.000806, 0.029778, 0.000000, 0.982041, 13.602327, -21.953306, 49.576336, -0.007814, -0.037143, 1.070911

149372955.486171, -0.000586, -0.001524, 0.000407, 0.029778, 0.000000, 0.982041, 13.664376, -22.001959, 49.616619, -0.007664, -0.037022, 1.070819

149372955.487191, -0.000574, -0.000296, 0.000099, 0.029778, 0.000000, 0.966453, 13.714015, -22.040880, 49.648846, -0.007516, -0.036901, 1.070723

149372955.488212, -0.001758, -0.001486, -0.001099, 0.029778, 0.000000, 0.966453, 13.651044, -21.990385, 49.581329, -0.007383, -0.036795, 1.070641

149372955.489239, -0.004412, -0.001455, -0.002571, 0.029778, 0.000000, 0.997629, 13.600667, -21.949989, 49.527317, -0.007278, -0.036671, 1.070529

149372955.490259, -0.000731, 0.003958, -0.000424, 0.029778, 0.000000, 0.997629, 13.560366, -21.917673, 49.484108, -0.007140, -0.036495, 1.070457

149372955.491326, 0.005563, 0.002978, -0.001611, 0.044666, 0.000000, 0.982041, 13.589734, -21.871412, 49.472862, -0.006936, -0.036642, 1.070889

149372955.492346, 0.000064, 0.000523, -0.001876, 0.044666, 0.000000, 0.982041, 13.613229, -21.834402, 49.463867, -0.006795, -0.036811, 1.071280

149372955.493368, 0.003352, 0.000512, -0.002435, 0.044666, 0.000000, 0.982041, 13.632025, -21.804794, 49.456673, -0.006623, -0.036978, 1.071633

149372955.494389, -0.004792, 0.004388, 0.000607, 0.044666, 0.000000, 0.982041, 13.647061, -21.781109, 49.450916, -0.006537, -0.037102, 1.071988

149372955.495410, 0.006970, -0.000488, 0.001491, 0.029778, 0.000000, 0.982041, 13.679627, -21.802977, 49.539608, -0.006337, -0.036972, 1.071796

149372955.496478, 0.007720, -0.001674, 0.000264, 0.029778, 0.000000, 0.982041, 13.705680, -21.820471, 49.610561, -0.006129, -0.036857, 1.071585

149372955.497498, 0.000382, -0.001041, 0.002650, 0.029778, 0.000000, 0.997629, 13.726521, -21.834467, 49.667324, -0.006003, -0.036727, 1.071378

149372955.498519, 0.000075, 0.001971, 0.001398, 0.029778, 0.000000, 0.997629, 13.722659, -21.825254, 49.666084, -0.005881, -0.036571, 1.071162

149372955.499539, -0.000525, 0.003126, 0.000771, 0.029778, 0.000000, 0.997629, 13.719569, -21.817884, 49.665092, -0.005769, -0.036405, 1.070942

149372955.500560, -0.000514, 0.006050, -0.001039, 0.029778, 0.000000, 0.997629, 13.717097, -21.811989, 49.664299, -0.005657, -0.036214, 1.070708

149372955.501626, -0.005586, 0.002933, 0.001673, 0.029778, -0.030966, 0.982041, 13.653510, -21.807272, 49.686989, -0.006231, -0.036055, 1.069932

149372955.502648, -0.006664, 0.002871, -0.002249, 0.029778, -0.030966, 0.982041, 13.602640, -21.803499, 49.705143, -0.006801, -0.035902, 1.069167

149372955.503675, -0.007720, -0.000479, -0.000407, 0.029778, 0.000000, 0.982041, 13.561944, -21.800480, 49.719666, -0.006743, -0.035796, 1.069097

149372955.504696, -0.000381, 0.001924, -0.003688, 0.029778, 0.000000, 0.982041, 13.529387, -21.798065, 49.731281, -0.006610, -0.035668, 1.069018

149372955.505718, 0.001421, 0.000089, -0.000620, 0.044666, 0.000000, 0.966453, 13.606024, -21.857357, 49.647278, -0.006461, -0.035875, 1.069505

149372955.506743, -0.004290, 0.000087, 0.001785, 0.044666, 0.000000, 0.966453, 13.667333, -21.904791, 49.580078, -0.006374, -0.036079, 1.069979

149372955.507809, -0.007190, 0.000683, -0.001841, 0.029778, 0.000000, 0.950865, 13.716380, -21.942738, 49.526318, -0.006320, -0.035977, 1.069855

149372955.508831, 0.001333, 0.000370, -0.000905, 0.029778, 0.000000, 0.950865, 13.673472, -21.911871, 49.553280, -0.006180, -0.035880, 1.069763

149372955.509851, 0.005491, 0.001259, 0.001207, 0.029778, 0.000000, 0.950865, 13.639147, -21.887178, 49.574848, -0.006002, -0.035776, 1.069708

149372955.510870, -0.000923, 0.002175, -0.001542, 0.029778, -0.015483, 1.013217, 13.611686, -21.867424, 49.592102, -0.006195, -0.035625, 1.069276

149372955.511936, -0.005089, -0.001458, -0.000911, 0.029778, -0.015483, 1.013217, 13.610253, -21.810804, 49.629230, -0.006428, -0.035513, 1.068838

149372955.512957, 0.002493, -0.004119, 0.000603, 0.014889, 0.000000, 0.997629, 13.609108, -21.765509, 49.658936, -0.006268, -0.035145, 1.068204

149372955.513977, -0.001746, -0.002537, 0.000291, 0.014889, 0.000000, 0.997629, 13.608191, -21.729271, 49.682697, -0.006154, -0.034768, 1.067566

149372955.514997, -0.001410, 0.001404, -0.000014, 0.029778, 0.000000, 0.997629, 13.648531, -21.761507, 49.748356, -0.006045, -0.034656, 1.067441

149372955.516051, -0.004370, 0.000178, -0.000911, 0.029778, 0.000000, 0.997629, 13.680802, -21.787294, 49.800880, -0.005969, -0.034558, 1.067297

149372955.517078, 0.002300, -0.001022, -0.000892, 0.029778, -0.015483, 0.997629, 13.706620, -21.807924, 49.842903, -0.006135, -0.034472, 1.066843

149372955.518101, 0.003447, -0.000701, -0.002069, 0.029778, -0.015483, 0.997629, 13.727274, -21.824429, 49.876518, -0.006287, -0.034384, 1.066379

149372955.519123, -0.001409, -0.003677, -0.000829, 0.044666, -0.015483, 0.982041, 13.743797, -21.939672, 49.786793, -0.006489, -0.034643, 1.066534

149372955.520145, 0.003404, 0.001185, -0.000214, 0.044666, -0.015483, 0.982041, 13.757016, -22.031868, 49.715012, -0.006639, -0.034848, 1.066716

149372955.521167, 0.004230, 0.000562, 0.000688, 0.029778, 0.000000, 0.997629, 13.767591, -22.105625, 49.657585, -0.006464, -0.034742, 1.066662

149372955.522235, 0.004141, -0.000048, 0.002168, 0.029778, 0.000000, 0.997629, 13.714441, -22.062590, 49.611645, -0.006293, -0.034645, 1.066646

149372955.523257, -0.003122, -0.001243, -0.000568, 0.029778, 0.000000, 0.982041, 13.671922, -22.028162, 49.574894, -0.006199, -0.034572, 1.066633

149372955.524279, -0.000366, -0.003011, -0.000556, 0.029778, 0.000000, 0.982041, 13.637906, -22.000620, 49.545494, -0.006079, -0.034517, 1.066633

149372955.525300, -0.003348, -0.001153, -0.000246, 0.044666, 0.000000, 0.966453, 13.651767, -21.978586, 49.591946, -0.005987, -0.034760, 1.067182

149372955.526322, -0.001783, 0.000665, -0.000839, 0.044666, 0.000000, 0.966453, 13.662855, -21.960958, 49.629108, -0.005882, -0.034980, 1.067701

149372955.527390, 0.000647, 0.000053, -0.000821, 0.059555, 0.000000, 0.966453, 13.671725, -21.946856, 49.658836, -0.005744, -0.035508, 1.068763

149372955.528411, -0.000862, -0.000546, -0.000804, 0.059555, 0.000000, 0.966453, 13.637749, -22.078430, 49.705944, -0.005623, -0.036031, 1.069878

149372955.529433, 0.003109, 0.003424, -0.000193, 0.014889, 0.000000, 0.982041, 13.610568, -22.183691, 49.743629, -0.005474, -0.035581, 1.069389

149372955.530457, 0.001549, -0.001432, 0.001904, 0.014889, 0.000000, 0.982041, 13.588823, -22.267899, 49.773777, -0.005346, -0.035188, 1.068979

149372955.531480, -0.005959, -0.000505, 0.003359, 0.014889, 0.000000, 0.982041, 13.571427, -22.335266, 49.797894, -0.005296, -0.034793, 1.068630

149372955.532503, -0.004339, -0.000195, -0.002392, 0.014889, 0.000000, 0.982041, 13.495901, -22.246302, 49.747215, -0.005229, -0.034403, 1.068246

149372955.533572, -0.000659, -0.000789, 0.000349, 0.044666, 0.000000, 0.982041, 13.435480, -22.175131, 49.706673, -0.005128, -0.034631, 1.068974

149372955.534596, 0.004139, -0.001071, -0.000555, 0.044666, 0.000000, 0.982041, 13.387143, -22.118195, 49.674240, -0.004980, -0.034856, 1.069691

149372955.535618, -0.004022, -0.001946, 0.001549, 0.059555, 0.000000, 0.966453, 13.451156, -22.031828, 49.624969, -0.004905, -0.035406, 1.070928

149372955.536641, -0.002741, -0.000111, 0.001218, 0.059555, 0.000000, 0.966453, 13.502366, -21.962736, 49.585552, -0.004820, -0.035927, 1.072073

149372955.537663, -0.001786, -0.003696, -0.000901, 0.059555, 0.000000, 0.966453, 13.543334, -21.907461, 49.554020, -0.004728, -0.036474, 1.073123

149372955.538685, -0.009117, 0.000580, 0.000015, 0.014889, 0.015516, 0.997629, 13.617181, -21.904058, 49.598766, -0.004410, -0.036041, 1.072740

149372955.539753, -0.003244, -0.005114, 0.000613, 0.014889, 0.015516, 0.997629, 13.676259, -21.901337, 49.634563, -0.004041, -0.035676, 1.072330

149372955.540775, 0.001908, -0.001717, 0.001796, 0.029778, 0.000000, 0.997629, 13.723521, -21.899158, 49.663200, -0.003941, -0.035577, 1.072127

149372955.541796, -0.002019, 0.000711, 0.001459, 0.029778, 0.000000, 0.997629, 13.761331, -21.897417, 49.686111, -0.003882, -0.035456, 1.071898

149372955.542818, -0.002874, 0.000098, 0.001429, 0.029778, -0.015483, 0.982041, 13.791578, -21.896023, 49.704441, -0.004148, -0.035349, 1.071362

149372955.543839, 0.005559, -0.001399, 0.000800, 0.029778, -0.015483, 0.982041, 13.815777, -21.894907, 49.719105, -0.004323, -0.035259, 1.070813

149372955.544907, 0.000060, 0.004910, -0.000412, 0.029778, -0.015483, 0.982041, 13.835135, -21.894014, 49.730835, -0.004550, -0.035105, 1.070248

149372955.545929, 0.001553, 0.003909, 0.000493, 0.029778, -0.015483, 0.982041, 13.768477, -21.852484, 49.716892, -0.004757, -0.034967, 1.069733

149372955.546950, 0.000026, -0.000658, -0.002806, 0.044666, 0.000000, 0.982041, 13.715151, -21.819260, 49.705738, -0.004659, -0.035183, 1.070067

149372955.547971, -0.002068, 0.001150, -0.000654, 0.044666, 0.000000, 0.982041, 13.672489, -21.792681, 49.696815, -0.004585, -0.035376, 1.070436

149372955.548993, -0.000846, 0.000844, -0.000349, 0.044666, 0.015516, 1.028805, 13.658896, -21.893867, 49.666355, -0.004198, -0.035522, 1.071037

149372955.550061, 0.006946, 0.002920, -0.000640, 0.044666, 0.015516, 1.028805, 13.648023, -21.974815, 49.641987, -0.003737, -0.035642, 1.071658

149372955.551084, 0.002912, 0.000765, 0.000270, 0.029778, 0.000000, 0.997629, 13.639323, -22.039574, 49.622490, -0.003633, -0.035519, 1.071565

149372955.552106, -0.004624, 0.000151, -0.000931, 0.029778, 0.000000, 0.997629, 13.673436, -22.009748, 49.606892, -0.003606, -0.035404, 1.071426

149372955.553129, -0.000640, 0.003736, 0.001779, 0.029778, 0.000000, 0.982041, 13.700727, -21.985888, 49.594414, -0.003540, -0.035266, 1.071305

149372955.554152, 0.001467, -0.001127, 0.002340, 0.029778, 0.000000, 0.982041, 13.722559, -21.966799, 49.584431, -0.003455, -0.035178, 1.071170

149372955.555174, 0.000539, -0.003495, 0.003486, 0.044666, 0.000000, 0.997629, 13.740026, -21.951529, 49.576447, -0.003381, -0.035404, 1.071540

149372955.556242, -0.000070, -0.000132, -0.002268, 0.044666, 0.000000, 0.997629, 13.733462, -22.000536, 49.640030, -0.003311, -0.035591, 1.071868

149372955.557266, -0.002162, -0.000429, -0.001921, 0.044666, 0.000000, 0.982041, 13.728211, -22.039742, 49.690899, -0.003264, -0.035792, 1.072241

149372955.558292, -0.001219, -0.001018, 0.002305, 0.044666, 0.000000, 0.982041, 13.724010, -22.071106, 49.731594, -0.003210, -0.035995, 1.072664

149372955.559318, 0.000301, 0.000798, -0.000135, 0.029778, 0.000000, 0.997629, 13.741186, -22.055382, 49.694176, -0.003142, -0.035864, 1.072484

149372955.560341, -0.003293, -0.001013, -0.002225, 0.029778, 0.000000, 0.997629, 13.754927, -22.042803, 49.664242, -0.003111, -0.035754, 1.072271

149372955.561365, 0.000663, 0.000503, -0.002179, 0.029778, -0.015483, 0.982041, 13.765920, -22.032740, 49.640293, -0.003356, -0.035637, 1.071765

149372955.562388, 0.004536, -0.001002, -0.000040, 0.029778, -0.015483, 0.982041, 13.795250, -21.943056, 49.667786, -0.003557, -0.035538, 1.071232

149372955.563458, 0.002348, 0.000514, -0.000039, 0.014889, 0.000000, 0.982041, 13.818714, -21.871309, 49.689777, -0.003453, -0.035126, 1.070454

149372955.564472, -0.005775, 0.004988, -0.000038, 0.014889, 0.000000, 0.982041, 13.837485, -21.813911, 49.707371, -0.003434, -0.034679, 1.069655

149372955.565508, -0.001499, -0.001121, -0.000649, 0.014889, 0.000000, 1.044393, 13.811430, -21.829218, 49.651474, -0.003372, -0.034283, 1.068859

149372955.566535, 0.004305, 0.002850, 0.000267, 0.014889, -0.015483, 0.997629, 13.790586, -21.841463, 49.606758, -0.003562, -0.033861, 1.067815

149372955.567555, 0.000626, 0.003089, 0.000262, 0.014889, -0.015483, 0.997629, 13.773910, -21.851259, 49.570984, -0.003786, -0.033445, 1.066808

149372955.568584, 0.004597, 0.001867, 0.001178, 0.044666, 0.000000, 0.950865, 13.760570, -21.859097, 49.542366, -0.003661, -0.033695, 1.067270

149372955.569607, 0.003304, -0.003853, -0.000342, 0.044666, 0.000000, 0.950865, 13.749897, -21.844959, 49.566116, -0.003552, -0.033998, 1.067712

149372955.570635, -0.000354, -0.001679, -0.003026, 0.014889, 0.000000, 0.982041, 13.741359, -21.833649, 49.585117, -0.003477, -0.033640, 1.067010

149372955.571661, -0.003037, 0.001346, -0.001766, 0.014889, 0.000000, 0.982041, 13.734529, -21.824600, 49.600319, -0.003431, -0.033258, 1.066335

149372955.572732, -0.000880, 0.000421, -0.000234, 0.029778, -0.015483, 0.997629, 13.749600, -21.796953, 49.612480, -0.003682, -0.033182, 1.065868

149372955.573758, 0.000334, 0.002206, -0.001126, 0.029778, -0.015483, 0.997629, 13.761659, -21.774836, 49.622208, -0.003914, -0.033090, 1.065384

149372955.574779, -0.003560, 0.001861, -0.000803, 0.029778, 0.000000, 0.982041, 13.771305, -21.757141, 49.629990, -0.003871, -0.033017, 1.065221

149372955.575818, 0.000402, -0.000869, -0.000786, 0.029778, 0.000000, 0.982041, 13.758486, -21.702169, 49.612892, -0.003789, -0.032972, 1.065049

149372955.576848, 0.002188, 0.000345, 0.001622, 0.044666, 0.000000, 0.982041, 13.748230, -21.658192, 49.599216, -0.003689, -0.033217, 1.065432

149372955.577876, -0.000549, 0.001235, 0.000093, 0.044666, 0.000000, 0.982041, 13.740026, -21.623011, 49.588276, -0.003619, -0.033449, 1.065784

149372955.578901, -0.002033, -0.001482, -0.000806, 0.029778, 0.000000, 0.997629, 13.753999, -21.798946, 49.626171, -0.003567, -0.033392, 1.065625

149372955.579928, 0.004289, 0.000044, 0.001603, 0.029778, 0.000000, 0.997629, 13.765177, -21.939695, 49.656487, -0.003453, -0.033321, 1.065541

149372955.580956, -0.003874, 0.003332, -0.001421, 0.014889, -0.015483, 0.982041, 13.774119, -22.052294, 49.680740, -0.003730, -0.032919, 1.064650

149372955.581980, -0.000205, 0.001468, 0.001300, 0.014889, -0.015483, 0.982041, 13.781274, -22.142374, 49.700142, -0.003966, -0.032544, 1.063838

149372955.583006, 0.001594, -0.000955, 0.000077, 0.029778, 0.000000, 0.966453, 13.745924, -22.091990, 49.645691, -0.003871, -0.032518, 1.063879

149372955.584031, -0.002626, -0.006317, 0.002467, 0.029778, 0.000000, 0.966453, 13.717645, -22.051682, 49.602131, -0.003821, -0.032548, 1.063946

149372955.585101, 0.000419, -0.000802, 0.002714, 0.044666, 0.000000, 0.966453, 13.695021, -22.019434, 49.567284, -0.003737, -0.032828, 1.064563

149372955.586125, -0.002580, 0.001906, -0.000034, 0.044666, 0.000000, 0.966453, 13.635849, -21.952820, 49.562729, -0.003685, -0.033075, 1.065157

149372955.587146, -0.001927, -0.000526, 0.001462, 0.029778, 0.000000, 0.982041, 13.588511, -21.899529, 49.559086, -0.003631, -0.033025, 1.065202

149372955.588170, 0.003196, -0.001711, 0.000235, 0.029778, 0.000000, 0.982041, 13.550641, -21.856895, 49.556171, -0.003527, -0.032988, 1.065245

149372955.589192, 0.001933, 0.001315, 0.000230, 0.059555, 0.000000, 1.013217, 13.561418, -21.822790, 49.577164, -0.003424, -0.033487, 1.066294

149372955.590215, -0.000799, -0.000806, -0.001569, 0.059555, 0.000000, 1.013217, 13.570039, -21.795506, 49.593956, -0.003350, -0.033998, 1.067288

149372955.591283, 0.003703, -0.004676, 0.000856, 0.044666, 0.000000, 0.982041, 13.576936, -21.773678, 49.607391, -0.003242, -0.034275, 1.067787

149372955.592307, 0.001233, -0.006072, -0.000059, 0.044666, 0.000000, 0.982041, 13.582454, -21.756216, 49.618137, -0.003163, -0.034559, 1.068255

149372955.593329, -0.005371, -0.001161, -0.000655, 0.044666, 0.000000, 0.966453, 13.586868, -21.742247, 49.626736, -0.003150, -0.034802, 1.068728

149372955.594353, 0.001619, -0.000837, 0.002049, 0.059555, 0.000000, 0.966453, 13.590400, -21.731070, 49.633614, -0.003058, -0.035343, 1.069779

149372955.595374, 0.004575, 0.000675, 0.002604, 0.059555, 0.000000, 0.966453, 13.593225, -21.722128, 49.639114, -0.002939, -0.035859, 1.070810

149372955.596398, 0.001788, -0.000236, 0.000157, 0.029778, -0.015483, 0.997629, 13.554412, -21.714975, 49.620193, -0.003172, -0.035738, 1.070363

149372955.597466, -0.001539, 0.000965, -0.003434, 0.029778, -0.015483, 0.997629, 13.523362, -21.709253, 49.605057, -0.003432, -0.035608, 1.069908

149372955.598491, 0.005670, 0.000048, 0.000226, 0.014889, 0.000000, 0.982041, 13.498522, -21.704676, 49.592945, -0.003301, -0.035199, 1.069308

149372955.599513, -0.001626, -0.002943, 0.000222, 0.014889, 0.000000, 0.982041, 13.499187, -21.741831, 49.653229, -0.003245, -0.034829, 1.068735

149372955.600538, -0.001891, -0.000489, -0.000082, 0.029778, 0.000000, 0.982041, 13.499718, -21.771555, 49.701458, -0.003199, -0.034743, 1.068709

149372955.601561, 0.000840, -0.002871, 0.000817, 0.029778, 0.000000, 0.982041, 13.500143, -21.795334, 49.740040, -0.003127, -0.034684, 1.068703

149372955.602586, -0.001868, -0.001016, -0.000396, 0.029778, -0.015483, 0.982041, 13.562093, -21.834764, 49.770905, -0.003398, -0.034604, 1.068351

149372955.603609, -0.002128, -0.000098, 0.001705, 0.029778, -0.015483, 0.982041, 13.611652, -21.866308, 49.795597, -0.003666, -0.034517, 1.068005

149372955.604679, -0.001186, -0.000395, -0.001620, 0.014889, 0.000000, 0.982041, 13.651299, -21.891544, 49.815350, -0.003599, -0.034135, 1.067397

149372955.605703, -0.002955, -0.000088, -0.001287, 0.014889, 0.000000, 0.982041, 13.683018, -21.911734, 49.831154, -0.003551, -0.033758, 1.066792

149372955.606726, -0.001398, 0.001708, -0.001858, 0.029778, 0.000000, 0.966453, 13.667319, -21.887068, 49.797150, -0.003494, -0.033683, 1.066735

149372955.607750, -0.003462, -0.000122, 0.000872, 0.029778, 0.000000, 0.966453, 13.654760, -21.867336, 49.769943, -0.003460, -0.033627, 1.066706

149372955.608773, 0.002890, -0.000418, 0.003246, 0.044666, 0.000000, 0.982041, 13.644713, -21.851551, 49.748180, -0.003360, -0.033867, 1.067225

149372955.609795, -0.003749, 0.000488, 0.000786, 0.044666, 0.000000, 0.982041, 13.636676, -21.900146, 49.707447, -0.003328, -0.034093, 1.067731

149372955.610819, -0.004567, -0.001915, 0.002563, 0.029778, 0.000000, 0.966453, 13.630246, -21.939022, 49.674858, -0.003309, -0.034046, 1.067742

149372955.611888, -0.001780, -0.000977, 0.001612, 0.029778, 0.000000, 0.966453, 13.625102, -21.970123, 49.648788, -0.003263, -0.033993, 1.067759

149372955.612912, -0.001742, 0.000538, -0.000515, 0.044666, -0.015483, 0.935277, 13.641523, -21.995005, 49.674580, -0.003544, -0.034264, 1.068051

149372955.613935, 0.000986, -0.000968, -0.002597, 0.044666, -0.015483, 0.935277, 13.654660, -22.014910, 49.695213, -0.003791, -0.034544, 1.068316

149372955.614959, 0.001862, -0.000051, -0.001346, 0.029778, 0.000000, 0.966453, 13.665170, -22.030834, 49.711720, -0.003696, -0.034470, 1.068287

149372955.615982, 0.001823, -0.001246, -0.000122, 0.029778, 0.000000, 0.966453, 13.653041, -22.002756, 49.678276, -0.003604, -0.034409, 1.068268

149372955.617006, 0.004176, 0.001173, 0.001675, 0.044666, 0.000000, 0.966453, 13.643338, -21.980295, 49.651524, -0.003488, -0.034632, 1.068812

149372955.618076, 0.001995, 0.001148, 0.000144, 0.044666, 0.000000, 0.966453, 13.635575, -21.962326, 49.630119, -0.003394, -0.034850, 1.069329

149372955.619097, -0.000439, -0.000072, -0.002251, 0.044666, 0.000000, 1.013217, 13.629365, -21.947950, 49.612995, -0.003328, -0.035034, 1.069732

149372955.620121, -0.000728, -0.001267, 0.002581, 0.044666, 0.000000, 1.013217, 13.624397, -21.936449, 49.599297, -0.003268, -0.035226, 1.070175

149372955.621145, 0.001081, -0.000044, 0.000732, 0.044666, 0.000000, 0.982041, 13.620423, -21.927248, 49.588337, -0.003190, -0.035430, 1.070639

149372955.622167, 0.004347, 0.001153, -0.002273, 0.044666, 0.000000, 0.982041, 13.617244, -21.919888, 49.579571, -0.003079, -0.035618, 1.071064

149372955.623189, -0.005013, -0.000665, 0.001662, 0.044666, 0.000000, 0.982041, 13.635237, -21.934408, 49.595882, -0.003066, -0.035821, 1.071512

149372955.624258, -0.004310, -0.000651, 0.000431, 0.044666, 0.000000, 0.950865, 13.649631, -21.946024, 49.608932, -0.003048, -0.036049, 1.071988

149372955.625280, 0.001761, -0.000339, -0.000774, 0.044666, 0.000000, 0.950865, 13.661146, -21.955317, 49.619370, -0.002967, -0.036270, 1.072437

149372955.626304, -0.000369, 0.004153, -0.000459, 0.044666, -0.030966, 0.966453, 13.649822, -21.962751, 49.627720, -0.003552, -0.036424, 1.072254

149372955.627333, -0.003351, 0.002571, 0.001644, 0.044666, -0.030966, 0.966453, 13.640763, -21.968699, 49.634399, -0.004157, -0.036590, 1.072105

149372955.628356, -0.002085, 0.000125, 0.000413, 0.029778, -0.015483, 0.997629, 13.633515, -21.973455, 49.639744, -0.004404, -0.036451, 1.071685

149372955.629379, 0.000650, -0.001074, -0.001091, 0.029778, -0.015483, 0.997629, 13.607181, -21.895630, 49.644020, -0.004617, -0.036328, 1.071245

149372955.630402, 0.001234, 0.002836, -0.001965, 0.044666, 0.000000, 0.982041, 13.586113, -21.833368, 49.647442, -0.004510, -0.036481, 1.071653

149372955.631471, 0.001507, 0.001580, 0.000469, 0.044666, 0.000000, 0.982041, 13.569259, -21.783560, 49.650177, -0.004403, -0.036643, 1.072071

149372955.632493, -0.000019, -0.000845, -0.001933, 0.014889, 0.000000, 0.997629, 13.555776, -21.743713, 49.652367, -0.004307, -0.036218, 1.071375

149372955.633504, -0.002411, -0.000528, -0.000995, 0.014889, 0.000000, 0.997629, 13.586062, -21.813877, 49.677444, -0.004237, -0.035799, 1.070710

149372955.634534, -0.001463, -0.001115, 0.002614, 0.029778, 0.000000, 0.982041, 13.610291, -21.870007, 49.697506, -0.004168, -0.035701, 1.070633

149372955.635561, 0.001558, -0.000494, 0.001362, 0.029778, 0.000000, 0.982041, 13.629675, -21.914911, 49.713554, -0.004070, -0.035599, 1.070548

149372955.636585, -0.002063, 0.001610, -0.000161, 0.014889, 0.015516, 0.982041, 13.645182, -21.971243, 49.703068, -0.003690, -0.035177, 1.070235

149372955.637610, 0.001867, 0.002473, -0.002251, 0.014889, 0.015516, 0.982041, 13.657587, -22.016308, 49.694679, -0.003277, -0.034754, 1.069916

149372955.638679, 0.001230, -0.002662, -0.000409, 0.029778, -0.015483, 0.982041, 13.667511, -22.052361, 49.687969, -0.003513, -0.034691, 1.069552

149372955.639703, 0.002101, 0.001281, -0.002494, 0.029778, -0.015483, 0.982041, 13.613841, -22.019978, 49.612629, -0.003736, -0.034589, 1.069199

149372955.640726, 0.000263, 0.000357, -0.003039, 0.044666, 0.000000, 1.013217, 13.570905, -21.994072, 49.552357, -0.003655, -0.034774, 1.069654

149372955.641750, 0.005340, -0.001146, -0.004470, 0.044666, 0.000000, 1.013217, 13.536556, -21.973347, 49.504139, -0.003525, -0.034970, 1.070101

149372955.642772, 0.000444, 0.002466, -0.000489, 0.014889, 0.000000, 0.982041, 13.509077, -21.956766, 49.465565, -0.003444, -0.034550, 1.069582

149372955.643795, 0.003126, -0.001473, 0.001016, 0.014889, 0.000000, 0.982041, 13.589776, -22.065950, 49.551327, -0.003340, -0.034178, 1.069078

149372955.644865, 0.000369, -0.003535, -0.001397, 0.014889, 0.000000, 0.982041, 13.654335, -22.153299, 49.619934, -0.003264, -0.033836, 1.068551

149372955.645889, 0.000062, 0.000427, -0.001966, 0.014889, 0.000000, 0.982041, 13.705982, -22.223177, 49.674820, -0.003193, -0.033459, 1.068022

149372955.646912, -0.000836, 0.004006, -0.000729, 0.029778, 0.000000, 0.997629, 13.665154, -22.197447, 49.602112, -0.003137, -0.033347, 1.068033

149372955.647936, -0.003809, 0.000035, -0.000414, 0.029778, 0.000000, 0.997629, 13.632492, -22.176863, 49.543945, -0.003112, -0.033276, 1.068061

149372955.648960, -0.001038, 0.000034, -0.000106, 0.029778, -0.015483, 0.997629, 13.606362, -22.160397, 49.497410, -0.003370, -0.033205, 1.067810

149372955.649983, 0.002871, 0.001827, 0.000494, 0.029778, -0.015483, 0.997629, 13.564922, -22.085999, 49.436855, -0.003584, -0.033118, 1.067567

149372955.651006, 0.001017, 0.002686, 0.001081, 0.029778, -0.015483, 0.997629, 13.531770, -22.026480, 49.388412, -0.003812, -0.033024, 1.067335

149372955.652076, -0.000799, 0.001433, -0.000735, 0.044666, 0.000000, 0.966453, 13.505248, -21.978865, 49.349659, -0.003740, -0.033271, 1.067961

149372955.653100, 0.001012, 0.002599, 0.001672, 0.044666, 0.000000, 0.966453, 13.566176, -22.001997, 49.435276, -0.003652, -0.033502, 1.068568

149372955.654124, 0.001888, 0.002245, 0.000740, 0.029778, 0.000000, 0.982041, 13.614919, -22.020504, 49.503773, -0.003560, -0.033415, 1.068565

149372955.655148, -0.003534, 0.000703, -0.000472, 0.029778, 0.000000, 0.982041, 13.653913, -22.035309, 49.558567, -0.003525, -0.033347, 1.068530

149372955.656173, -0.002562, 0.002781, -0.002555, 0.029778, 0.000000, 0.982041, 13.685108, -22.047153, 49.602406, -0.003480, -0.033259, 1.068458

149372955.657196, -0.004303, 0.001228, -0.001604, 0.029778, 0.000000, 0.982041, 13.689528, -22.015812, 49.637474, -0.003453, -0.033188, 1.068384

149372955.658225, 0.002964, -0.000592, -0.000972, 0.029778, 0.000000, 0.982041, 13.693065, -21.990740, 49.665531, -0.003354, -0.033137, 1.068305

149372955.659295, 0.001706, -0.003570, -0.000952, 0.029778, 0.000000, 0.982041, 13.695893, -21.970682, 49.687977, -0.003269, -0.033118, 1.068219

149372955.660317, -0.003114, 0.001289, -0.000334, 0.044666, 0.000000, 0.982041, 13.636547, -21.934227, 49.682606, -0.003231, -0.033351, 1.068706

149372955.661339, -0.002750, 0.002159, -0.002420, 0.044666, 0.000000, 0.982041, 13.589070, -21.905064, 49.678310, -0.003191, -0.033570, 1.069185

149372955.662362, 0.001793, -0.001175, 0.001817, 0.044666, -0.015483, 0.982041, 13.551088, -21.881733, 49.674873, -0.003423, -0.033821, 1.069425

149372955.663386, 0.003550, -0.000851, 0.003872, 0.044666, -0.015483, 0.982041, 13.602849, -21.903883, 49.648800, -0.003635, -0.034063, 1.069650

149372955.664407, -0.001010, -0.002628, 0.003492, 0.044666, -0.015483, 0.982041, 13.644258, -21.921604, 49.627941, -0.003887, -0.034318, 1.069844

149372955.665476, 0.000207, -0.003469, -0.000768, 0.044666, -0.015483, 0.982041, 13.677384, -21.935781, 49.611256, -0.004122, -0.034577, 1.069971

149372955.666499, -0.005179, 0.002584, -0.001051, 0.029778, 0.000000, 0.982041, 13.724422, -22.028755, 49.644554, -0.004091, -0.034467, 1.069852

149372955.667520, -0.000884, 0.003725, -0.002225, 0.029778, 0.000000, 0.982041, 13.762052, -22.103134, 49.671192, -0.004017, -0.034347, 1.069727

149372955.668542, -0.000268, -0.000838, -0.001879, 0.059555, 0.000000, 0.997629, 13.792155, -22.162638, 49.692505, -0.003927, -0.034859, 1.070656

149372955.669563, 0.000635, -0.001119, 0.002048, 0.059555, 0.000000, 0.997629, 13.816238, -22.210239, 49.709553, -0.003832, -0.035363, 1.071607

149372955.670589, 0.000323, 0.001296, 0.000809, 0.029778, -0.015483, 0.982041, 13.814969, -22.125874, 49.653221, -0.004066, -0.035247, 1.071147

149372955.671659, 0.000914, 0.001867, 0.001091, 0.029778, -0.015483, 0.982041, 13.813953, -22.058380, 49.608154, -0.004290, -0.035125, 1.070672

149372955.672682, 0.001194, -0.000265, 0.000769, 0.029778, 0.000000, 0.982041, 13.813141, -22.004385, 49.572102, -0.004192, -0.035032, 1.070484

149372955.673706, 0.002364, -0.001157, -0.000444, 0.029778, 0.000000, 0.982041, 13.730345, -21.981598, 49.566582, -0.004084, -0.034950, 1.070338

149372955.674729, 0.001119, 0.000961, -0.000434, 0.044666, 0.000000, 0.982041, 13.664108, -21.963367, 49.562168, -0.003989, -0.035150, 1.070769

149372955.675755, 0.001394, 0.003332, -0.001621, 0.044666, 0.000000, 0.982041, 13.611119, -21.948784, 49.558636, -0.003892, -0.035321, 1.071212

149372955.676777, 0.001066, -0.000027, 0.000805, 0.014889, -0.015483, 0.997629, 13.671410, -21.957525, 49.555809, -0.004105, -0.034908, 1.070257

149372955.677803, 0.004332, 0.000871, 0.001087, 0.014889, -0.015483, 0.997629, 13.719642, -21.964518, 49.553547, -0.004280, -0.034494, 1.069295

149372955.678830, 0.003344, -0.000942, 0.000167, 0.014889, -0.015483, 0.997629, 13.758227, -21.970112, 49.551739, -0.004462, -0.034107, 1.068318

149372955.679901, 0.005666, -0.000623, 0.000463, 0.029778, 0.000000, 0.997629, 13.809632, -21.974586, 49.573616, -0.004313, -0.034029, 1.068150

149372955.680925, 0.006443, 0.002081, -0.000444, 0.029778, 0.000000, 0.997629, 13.850757, -21.978167, 49.591118, -0.004162, -0.033924, 1.067949

149372955.681949, 0.000328, -0.001550, -0.001930, 0.029778, 0.000000, 0.982041, 13.883656, -21.981031, 49.605118, -0.004074, -0.033868, 1.067732

149372955.682971, 0.000321, -0.000920, -0.000693, 0.029778, 0.000000, 0.982041, 13.909975, -21.983322, 49.616318, -0.003989, -0.033807, 1.067515

149372955.683993, 0.001543, 0.000302, 0.000834, 0.074444, 0.000000, 1.044393, 13.931030, -21.964746, 49.625278, -0.003871, -0.034548, 1.068769

149372955.685014, 0.003005, -0.002096, 0.000518, 0.074444, 0.000000, 1.044393, 13.947875, -21.949886, 49.632446, -0.003743, -0.035299, 1.069978

149372955.686082, -0.001271, -0.003624, -0.000704, 0.044666, 0.000000, 0.982041, 13.961350, -21.937998, 49.638184, -0.003680, -0.035539, 1.070195

149372955.687103, -0.003636, -0.001155, 0.000507, 0.044666, 0.000000, 0.982041, 13.951594, -21.969303, 49.666096, -0.003642, -0.035749, 1.070439

149372955.688128, -0.003560, -0.000533, -0.000401, 0.029778, 0.000000, 0.982041, 13.943789, -21.994349, 49.688427, -0.003604, -0.035646, 1.070153

149372955.689151, -0.004980, 0.001272, 0.002597, 0.029778, 0.000000, 0.982041, 13.937546, -22.014385, 49.706291, -0.003582, -0.035527, 1.069916

149372955.690173, 0.003198, -0.001147, 0.001945, 0.029778, 0.000000, 0.966453, 13.912015, -21.969189, 49.673935, -0.003478, -0.035444, 1.069692

149372955.691196, 0.000440, 0.001868, -0.001385, 0.029778, 0.000000, 0.966453, 13.891590, -21.933033, 49.648048, -0.003403, -0.035333, 1.069440

149372955.692257, -0.002260, -0.000863, -0.000758, 0.044666, 0.000000, 0.982041, 13.875250, -21.904108, 49.627338, -0.003357, -0.035544, 1.069714

149372955.693287, -0.001316, -0.005330, -0.003134, 0.044666, 0.000000, 0.982041, 13.862178, -21.880968, 49.610771, -0.003301, -0.035795, 1.069960

149372955.694313, -0.000690, -0.000134, -0.001573, 0.029778, 0.000000, 0.966453, 13.831183, -22.046129, 49.574196, -0.003241, -0.035698, 1.069784

149372955.695336, 0.000221, -0.001328, -0.000045, 0.029778, 0.000000, 0.966453, 13.806388, -22.178259, 49.544933, -0.003174, -0.035613, 1.069695

149372955.696359, 0.000516, 0.000195, 0.000255, 0.044666, -0.015483, 0.966453, 13.786551, -22.283962, 49.521523, -0.003424, -0.035824, 1.069912

149372955.697382, 0.001402, 0.002284, 0.000848, 0.044666, -0.015483, 0.966453, 13.750146, -22.205259, 49.572769, -0.003661, -0.036009, 1.070127

149372955.698450, -0.003113, 0.000143, -0.001562, 0.044666, 0.000000, 0.982041, 13.721022, -22.142298, 49.613766, -0.003618, -0.036195, 1.070578

149372955.699472, 0.003531, -0.002252, -0.000034, 0.044666, 0.000000, 0.982041, 13.697722, -22.091928, 49.646564, -0.003508, -0.036402, 1.071034

149372955.700496, -0.002523, -0.000410, -0.000931, 0.029778, 0.000000, 0.982041, 13.699619, -22.031223, 49.672802, -0.003463, -0.036285, 1.070914

149372955.701519, -0.006656, -0.000103, 0.001780, 0.029778, 0.000000, 0.982041, 13.701137, -21.982660, 49.693790, -0.003460, -0.036167, 1.070804

149372955.702542, -0.007114, -0.000101, 0.002041, 0.044666, 0.000000, 0.982041, 13.702351, -21.943810, 49.710583, -0.003462, -0.036353, 1.071221

149372955.703564, -0.001283, 0.000799, 0.001699, 0.044666, 0.000000, 0.982041, 13.641713, -21.933138, 49.630722, -0.003404, -0.036526, 1.071662

149372955.704632, 0.002332, 0.001679, 0.000468, 0.029778, 0.000000, 0.966453, 13.593203, -21.924601, 49.566833, -0.003312, -0.036394, 1.071592

149372955.705656, 0.001087, 0.004035, -0.003429, 0.029778, 0.000000, 0.966453, 13.554395, -21.917770, 49.515720, -0.003233, -0.036242, 1.071507

149372955.706679, -0.004318, 0.001259, -0.002759, 0.029778, 0.000000, 0.982041, 13.523348, -21.912306, 49.474831, -0.003211, -0.036112, 1.071432

149372955.707700, -0.001237, 0.001233, -0.001804, 0.044666, 0.000000, 0.982041, 13.560120, -21.928343, 49.535416, -0.003156, -0.036285, 1.071888

149372955.709737, -0.000314, 0.000908, -0.000570, 0.029778, 0.000000, 0.982041, 13.589538, -21.941172, 49.583881, -0.003099, -0.036148, 1.071789

149372955.710786, -0.001504, 0.000291, -0.001754, 0.029778, 0.000000, 0.982041, 13.592535, -21.951435, 49.599331, -0.003052, -0.036029, 1.071688

149372955.711827, 0.000920, -0.001808, -0.000521, 0.029778, 0.000000, 0.982041, 13.594934, -21.959646, 49.611691, -0.002981, -0.035933, 1.071602

149372955.712865, 0.003592, 0.000921, -0.002603, 0.029778, 0.000000, 0.982041, 13.596852, -21.966215, 49.621578, -0.002884, -0.035812, 1.071499

149372955.713904, -0.000969, 0.001200, 0.001937, 0.029778, 0.000000, 0.966453, 13.536777, -21.889837, 49.629486, -0.002837, -0.035700, 1.071474

149372955.714909, -0.001547, -0.000918, -0.001094, 0.029778, 0.000000, 0.966453, 13.488718, -21.828735, 49.635815, -0.002795, -0.035611, 1.071430

149372955.715951, 0.000280, 0.000596, 0.001919, 0.044666, 0.000000, 0.982041, 13.450271, -21.779854, 49.640877, -0.002734, -0.035801, 1.071952

149372955.716992, -0.003613, -0.000313, -0.002307, 0.044666, 0.000000, 0.982041, 13.481122, -21.904013, 49.621601, -0.002713, -0.035997, 1.072443

149372955.717986, 0.000350, -0.002400, -0.001063, 0.029778, -0.015483, 0.982041, 13.505803, -22.003340, 49.606182, -0.002970, -0.035904, 1.072116

149372955.719021, -0.004441, 0.000641, -0.002834, 0.029778, -0.015483, 0.982041, 13.525548, -22.082802, 49.593845, -0.003269, -0.035784, 1.071796

149372955.720053, -0.004049, 0.000029, -0.001579, 0.029778, 0.000000, 0.997629, 13.541344, -22.146372, 49.583977, -0.003244, -0.035665, 1.071789

149372955.721094, -0.005160, -0.001765, -0.002742, 0.029778, 0.000000, 0.997629, 13.636126, -22.095186, 49.599407, -0.003230, -0.035567, 1.071686

149372955.722131, 0.003620, 0.001860, -0.000890, 0.044666, 0.000000, 0.997629, 13.711951, -22.054239, 49.611752, -0.003127, -0.035731, 1.072061

149372955.723166, -0.002137, 0.000625, 0.000624, 0.044666, 0.000000, 0.997629, 13.772612, -22.021481, 49.621628, -0.003085, -0.035904, 1.072389

149372955.724203, -0.004484, -0.000285, -0.000585, 0.044666, 0.000000, 0.966453, 13.738995, -21.954458, 49.629528, -0.003067, -0.036112, 1.072749

149372955.725201, -0.005287, -0.001176, -0.001470, 0.044666, 0.000000, 0.966453, 13.712101, -21.900839, 49.635849, -0.003055, -0.036324, 1.073092

149372955.726252, -0.001288, -0.002348, 0.001252, 0.014889, -0.015483, 0.982041, 13.690586, -21.857944, 49.640903, -0.003312, -0.035919, 1.072054

149372955.727291, -0.001859, 0.000692, 0.001824, 0.014889, -0.015483, 0.982041, 13.673374, -21.864445, 49.621624, -0.003570, -0.035490, 1.071056

149372955.728324, -0.003016, -0.000220, 0.001486, 0.014889, 0.000000, 0.997629, 13.659604, -21.869646, 49.606201, -0.003523, -0.035082, 1.070394

149372955.729322, -0.007438, -0.003205, -0.000040, 0.014889, 0.000000, 0.997629, 13.648588, -21.873806, 49.593861, -0.003519, -0.034712, 1.069739

149372955.730364, -0.000105, 0.000749, 0.000260, 0.029778, -0.015483, 0.982041, 13.639775, -21.979176, 49.583988, -0.003764, -0.034614, 1.069374

149372955.731400, -0.000402, -0.001658, 0.001749, 0.029778, -0.015483, 0.982041, 13.735407, -22.063471, 49.599415, -0.004008, -0.034542, 1.068998

149372955.732439, 0.007381, -0.001324, 0.004404, 0.029778, -0.015483, 0.966453, 13.811913, -22.130907, 49.611755, -0.004174, -0.034478, 1.068643

149372955.733482, -0.001745, -0.004586, 0.001321, 0.029778, -0.015483, 0.966453, 13.873116, -22.184856, 49.621628, -0.004428, -0.034449, 1.068242

149372955.734474, -0.003203, -0.000303, -0.001398, 0.029778, -0.015483, 0.966453, 13.860471, -22.166790, 49.606205, -0.004690, -0.034377, 1.067823

149372955.735552, 0.000751, 0.001497, -0.001369, 0.044666, -0.015483, 0.966453, 13.850354, -22.152338, 49.593864, -0.004907, -0.034598, 1.067965

149372955.736551, 0.003128, 0.000270, 0.001949, 0.044666, -0.015483, 0.966453, 13.842261, -22.140776, 49.583992, -0.005098, -0.034827, 1.068139

149372955.737573, 0.004044, 0.000881, 0.002560, 0.029778, 0.000000, 1.013217, 13.794714, -22.111118, 49.599419, -0.004956, -0.034710, 1.068043

149372955.738601, 0.005454, 0.003254, 0.000712, 0.029778, 0.000000, 1.013217, 13.756677, -22.087393, 49.611759, -0.004803, -0.034571, 1.067947

149372955.739656, -0.003631, 0.001691, -0.001994, 0.029778, -0.015483, 0.997629, 13.726247, -22.068411, 49.621632, -0.005053, -0.034457, 1.067558

149372955.740665, -0.003555, -0.001335, -0.000457, 0.029778, -0.015483, 0.997629, 13.742975, -22.053226, 49.652855, -0.005296, -0.034376, 1.067176

149372955.741726, -0.001686, -0.001606, -0.001045, 0.044666, 0.000000, 0.982041, 13.756358, -22.041079, 49.677834, -0.005205, -0.034613, 1.067630

149372955.742719, 0.003134, -0.004263, 0.001070, 0.044666, 0.000000, 0.982041, 13.767064, -22.031361, 49.697819, -0.005069, -0.034870, 1.068087

149372955.743784, 0.005460, -0.001482, 0.001047, 0.044666, 0.000000, 0.982041, 13.775629, -22.023586, 49.713806, -0.004908, -0.035096, 1.068526

149372955.744799, -0.001831, 0.003931, -0.003460, 0.044666, 0.000000, 0.982041, 13.761945, -22.037775, 49.726597, -0.004825, -0.035263, 1.068926

149372955.745812, -0.002391, -0.000936, -0.002191, 0.044666, 0.000000, 0.997629, 13.750998, -22.049126, 49.736828, -0.004750, -0.035461, 1.069318

149372955.746869, -0.001144, 0.002672, -0.002145, 0.044666, 0.000000, 0.997629, 13.742240, -22.058207, 49.745014, -0.004664, -0.035618, 1.069712

149372955.747880, 0.003066, -0.001869, -0.001203, 0.014889, 0.015516, 0.982041, 13.735233, -22.024654, 49.704914, -0.004220, -0.035231, 1.069366

149372955.748937, 0.003599, 0.000562, 0.001514, 0.014889, 0.015516, 0.982041, 13.729629, -21.997812, 49.672832, -0.003780, -0.034827, 1.069047

149372955.749948, -0.000663, 0.006231, 0.002080, 0.029778, 0.000000, 0.982041, 13.725144, -21.976339, 49.647167, -0.003712, -0.034675, 1.068957

149372955.750959, 0.000248, 0.002811, -0.000057, 0.029778, 0.000000, 0.982041, 13.742093, -21.959162, 49.649960, -0.003635, -0.034561, 1.068830

149372955.752008, 0.003831, -0.002929, 0.000841, 0.029778, 0.000000, 0.966453, 13.755652, -21.945419, 49.652191, -0.003523, -0.034516, 1.068717

149372955.753025, -0.002230, -0.000177, 0.001123, 0.029778, 0.000000, 0.966453, 13.766500, -21.934425, 49.653976, -0.003475, -0.034444, 1.068596

149372955.754084, -0.003379, -0.001070, -0.000097, 0.044666, 0.000000, 0.997629, 13.734105, -21.905222, 49.632084, -0.003439, -0.034660, 1.068970

149372955.755097, -0.002410, 0.001644, 0.001101, 0.044666, 0.000000, 0.997629, 13.708189, -21.881859, 49.614567, -0.003393, -0.034845, 1.069358

149372955.756155, -0.000267, 0.001011, -0.000716, 0.029778, 0.000000, 0.966453, 13.687456, -21.863169, 49.600555, -0.003327, -0.034754, 1.069232

149372955.757167, 0.002430, 0.001289, -0.002196, 0.029778, 0.000000, 0.966453, 13.670870, -21.848217, 49.589344, -0.003236, -0.034662, 1.069100

149372955.758179, 0.001781, 0.003355, 0.000242, 0.029778, -0.015483, 0.982041, 13.616529, -21.897480, 49.557053, -0.003468, -0.034540, 1.068731

149372955.759237, -0.000350, 0.002387, 0.001134, 0.029778, -0.015483, 0.982041, 13.573055, -21.936890, 49.531219, -0.003717, -0.034428, 1.068424

149372955.760250, 0.001751, 0.001141, 0.001409, 0.014889, 0.000000, 0.997629, 13.538277, -21.968418, 49.510551, -0.003621, -0.034028, 1.067935

149372955.761308, 0.002611, -0.000378, 0.003472, 0.014889, 0.000000, 0.997629, 13.551526, -21.993641, 49.587315, -0.003518, -0.033650, 1.067479

149372955.762320, 0.001084, -0.000378, 0.002251, 0.059555, -0.015483, 0.966453, 13.562126, -22.013819, 49.648724, -0.003746, -0.034217, 1.068401

149372955.763333, 0.001958, 0.001125, 0.001605, 0.059555, -0.015483, 0.966453, 13.570606, -22.029961, 49.697853, -0.003960, -0.034758, 1.069301

149372955.764391, 0.000721, -0.001291, 0.000376, 0.059555, -0.015483, 0.966453, 13.556853, -22.022467, 49.690506, -0.004182, -0.035312, 1.070177

149372955.765403, 0.001637, 0.000542, 0.002208, 0.044666, 0.000000, 1.013217, 13.545852, -22.016470, 49.684631, -0.004081, -0.035480, 1.070696

149372955.766459, 0.000705, 0.004118, 0.000069, 0.044666, 0.000000, 1.013217, 13.537050, -22.011673, 49.679932, -0.003990, -0.035608, 1.071187

149372955.767470, 0.001289, 0.002537, 0.001263, 0.029778, 0.000000, 0.982041, 13.509473, -22.007835, 49.652847, -0.003899, -0.035477, 1.071209

149372955.768481, -0.000234, 0.001287, -0.001155, 0.029778, 0.000000, 0.982041, 13.487411, -22.004766, 49.631180, -0.003823, -0.035362, 1.071220

149372955.769537, -0.005312, 0.000961, -0.002028, 0.029778, 0.000000, 0.982041, 13.469761, -22.002310, 49.613846, -0.003801, -0.035251, 1.071232

149372955.770549, 0.004069, 0.000642, 0.001005, 0.029778, 0.000000, 0.982041, 13.455641, -22.000345, 49.599979, -0.003685, -0.035146, 1.071284

149372955.771607, -0.002296, -0.001166, -0.000512, 0.044666, 0.015516, 0.982041, 13.505954, -21.957958, 49.635532, -0.003315, -0.035357, 1.072080

149372955.772620, -0.001350, -0.003533, 0.000695, 0.044666, 0.015516, 0.982041, 13.546205, -21.924047, 49.663975, -0.002943, -0.035586, 1.072833

149372955.773632, 0.002266, -0.002861, 0.000980, 0.059555, -0.015483, 0.982041, 13.578405, -21.896919, 49.686729, -0.003168, -0.036119, 1.073548

149372955.774693, -0.003163, -0.002502, -0.000237, 0.059555, -0.015483, 0.982041, 13.604166, -21.916033, 49.681610, -0.003445, -0.036638, 1.074225

149372955.775710, 0.002640, 0.001164, 0.002206, 0.014889, 0.000000, 0.997629, 13.624774, -21.931324, 49.677513, -0.003343, -0.036193, 1.073555

149372955.776722, -0.001303, -0.001253, -0.000531, 0.014889, 0.000000, 0.997629, 13.641261, -21.943556, 49.674236, -0.003282, -0.035781, 1.072866

149372955.777784, -0.006358, -0.000629, -0.003211, 0.029778, 0.000000, 0.982041, 13.613378, -21.851301, 49.671616, -0.003281, -0.035679, 1.072676

149372955.778798, 0.000353, 0.000581, 0.002538, 0.029778, 0.000000, 0.982041, 13.591071, -21.777498, 49.669518, -0.003212, -0.035566, 1.072535

149372955.779854, 0.003635, 0.000269, 0.000391, 0.014889, 0.000000, 0.997629, 13.573226, -21.718456, 49.667839, -0.003103, -0.035152, 1.071831

149372955.780869, 0.002063, 0.002955, 0.000981, 0.014889, 0.000000, 0.997629, 13.558949, -21.834488, 49.643173, -0.003015, -0.034719, 1.071204

149372955.781884, -0.001269, 0.000202, 0.000063, 0.014889, 0.000000, 0.982041, 13.588601, -21.927313, 49.623440, -0.002961, -0.034326, 1.070604

149372955.782945, -0.001541, -0.000102, -0.000536, 0.014889, 0.000000, 0.982041, 13.612323, -22.001572, 49.607655, -0.002913, -0.033945, 1.070023

149372955.783956, 0.002677, 0.000200, 0.001867, 0.044666, 0.000000, 0.982041, 13.631300, -22.060980, 49.595024, -0.002826, -0.034172, 1.070544

149372955.784969, -0.003359, -0.002197, -0.000863, 0.044666, 0.000000, 0.982041, 13.667018, -22.026873, 49.608246, -0.002800, -0.034419, 1.070990

149372955.786025, -0.001195, 0.000242, -0.000845, 0.014889, 0.000000, 0.982041, 13.695592, -21.999588, 49.618820, -0.002750, -0.034032, 1.070341

149372955.787036, -0.003861, 0.001133, 0.000369, 0.014889, 0.000000, 0.982041, 13.718451, -21.977760, 49.627281, -0.002727, -0.033645, 1.069694

149372955.788094, 0.000107, -0.002179, 0.000062, 0.014889, 0.000000, 0.997629, 13.675130, -21.939890, 49.610725, -0.002666, -0.033294, 1.069063

149372955.789106, 0.002198, 0.000557, 0.001257, 0.014889, 0.000000, 0.997629, 13.640472, -21.909594, 49.597481, -0.002585, -0.032921, 1.068468

149372955.790117, 0.003049, 0.003237, 0.001828, 0.014889, 0.000000, 0.982041, 13.612746, -21.885357, 49.586887, -0.002499, -0.032535, 1.067907

149372955.791174, 0.002984, -0.001017, 0.000893, 0.044666, 0.000000, 0.982041, 13.590566, -21.865967, 49.578411, -0.002415, -0.032803, 1.068418

149372955.792186, 0.001426, 0.001097, 0.001771, 0.044666, 0.000000, 0.982041, 13.572822, -21.850454, 49.571629, -0.002350, -0.033044, 1.068932

149372955.793244, 0.000200, 0.001672, 0.000239, 0.044666, 0.000000, 0.966453, 13.558626, -21.838045, 49.566204, -0.002298, -0.033289, 1.069454

149372955.794256, 0.003186, 0.002235, 0.001729, 0.044666, 0.000000, 0.966453, 13.547270, -21.828117, 49.561863, -0.002218, -0.033524, 1.069984

149372955.795314, 0.001325, 0.000095, 0.001991, 0.074444, 0.015516, 0.997629, 13.579257, -21.799767, 49.651688, -0.001814, -0.034326, 1.071779

149372955.796329, -0.003786, 0.000392, 0.002548, 0.074444, 0.015516, 0.997629, 13.604847, -21.777086, 49.723549, -0.001472, -0.035110, 1.073521

149372955.797346, -0.000118, -0.002308, 0.003391, 0.059555, -0.015483, 0.997629, 13.625319, -21.758942, 49.781036, -0.001749, -0.035627, 1.074130

149372955.798360, 0.000482, 0.001329, -0.000567, 0.059555, -0.015483, 0.997629, 13.600624, -21.744427, 49.757053, -0.002012, -0.036098, 1.074700

149372955.799421, 0.001668, -0.005576, -0.001154, 0.029778, 0.000000, 0.982041, 13.580868, -21.732815, 49.737869, -0.001954, -0.036040, 1.074473

149372955.800435, -0.002254, -0.000675, 0.001861, 0.029778, 0.000000, 0.982041, 13.565063, -21.723524, 49.722519, -0.001937, -0.035933, 1.074287

149372955.801494, -0.001608, -0.000660, 0.002121, 0.014889, -0.015483, 0.997629, 13.572955, -21.736500, 49.686916, -0.002215, -0.035513, 1.073261

149372955.802509, 0.001415, 0.002643, 0.001777, 0.014889, -0.015483, 0.997629, 13.579269, -21.746881, 49.658436, -0.002458, -0.035068, 1.072251

149372955.803524, -0.005491, 0.001391, 0.001441, 0.029778, 0.000000, 0.982041, 13.584321, -21.755186, 49.635651, -0.002463, -0.034959, 1.072103

149372955.804584, 0.000305, -0.001628, 0.001410, 0.029778, 0.000000, 0.982041, 13.588362, -21.782238, 49.640747, -0.002411, -0.034884, 1.071967

149372955.805599, 0.002990, -0.000099, -0.002507, 0.029778, 0.000000, 0.966453, 13.591595, -21.803881, 49.644821, -0.002332, -0.034803, 1.071816

149372955.806614, 0.002329, 0.003192, -0.000959, 0.029778, 0.000000, 0.966453, 13.594181, -21.821194, 49.648083, -0.002262, -0.034692, 1.071689

149372955.807674, 0.004373, 0.001630, -0.000939, 0.044666, 0.000000, 0.997629, 13.596250, -21.835045, 49.650692, -0.002169, -0.034875, 1.072066

149372955.808689, 0.003982, -0.000498, 0.002071, 0.044666, 0.000000, 0.997629, 13.597905, -21.784901, 49.629456, -0.002085, -0.035077, 1.072445

149372955.809704, -0.002082, 0.001008, -0.000065, 0.029778, 0.000000, 0.997629, 13.599229, -21.744785, 49.612465, -0.002063, -0.034963, 1.072246

149372955.810768, 0.002447, 0.000987, -0.001260, 0.029778, 0.000000, 0.997629, 13.600288, -21.712692, 49.598873, -0.001996, -0.034850, 1.072026

149372955.811794, 0.006282, 0.001863, 0.002355, 0.059555, 0.000000, 0.997629, 13.621673, -21.707426, 49.634647, -0.001883, -0.035326, 1.072910

149372955.812808, 0.005253, 0.001226, 0.000810, 0.059555, 0.000000, 0.997629, 13.638780, -21.703215, 49.663269, -0.001784, -0.035799, 1.073748

149372955.813826, 0.000657, -0.004780, 0.000195, 0.059555, 0.000000, 0.997629, 13.652465, -21.699844, 49.686165, -0.001732, -0.036323, 1.074554

149372955.814861, -0.002944, -0.004978, -0.001304, 0.059555, 0.000000, 0.997629, 13.663413, -21.758373, 49.657833, -0.001718, -0.036838, 1.075340

149372955.815880, -0.002882, -0.003379, -0.000081, 0.044666, -0.015483, 0.982041, 13.672172, -21.805197, 49.635166, -0.002027, -0.037044, 1.075317

149372955.816943, -0.001028, 0.000879, 0.001117, 0.044666, -0.015483, 0.982041, 13.679179, -21.842655, 49.617035, -0.002313, -0.037203, 1.075316

149372955.817957, 0.002332, 0.002100, 0.001422, 0.029778, 0.000000, 1.075569, 13.684785, -21.913437, 49.625854, -0.002243, -0.036992, 1.075006

149372955.818972, -0.002800, -0.000635, -0.001299, 0.029778, 0.000000, 1.075569, 13.689269, -21.970062, 49.632908, -0.002224, -0.036812, 1.074694

149372955.820031, 0.001781, -0.000635, -0.002826, 0.029778, 0.000000, 0.950865, 13.692857, -22.015364, 49.638550, -0.002160, -0.036709, 1.074513

149372955.821044, 0.002342, 0.000873, -0.000673, 0.029778, 0.000000, 0.950865, 13.695727, -22.051605, 49.643066, -0.002093, -0.036593, 1.074371

149372955.822103, 0.001097, -0.002733, -0.000659, 0.029778, 0.000000, 0.950865, 13.718560, -22.019373, 49.623356, -0.002039, -0.036515, 1.074202

149372955.823116, -0.004309, -0.000582, -0.000944, 0.029778, -0.015483, 0.982041, 13.736826, -21.993587, 49.607586, -0.002354, -0.036394, 1.073673

149372955.824129, -0.002424, 0.000028, -0.001223, 0.029778, -0.015483, 0.982041, 13.751439, -21.972960, 49.594971, -0.002644, -0.036268, 1.073133

149372955.825189, 0.000617, 0.001522, 0.000895, 0.029778, 0.000000, 0.982041, 13.804202, -21.976866, 49.561554, -0.002585, -0.036134, 1.072894

149372955.826202, 0.003893, 0.001191, 0.001475, 0.029778, 0.000000, 0.982041, 13.846412, -21.979990, 49.534821, -0.002494, -0.036006, 1.072636

149372955.827219, 0.001120, -0.001226, 0.002939, 0.014889, 0.000000, 0.982041, 13.880179, -21.982489, 49.513435, -0.002426, -0.035602, 1.071861

149372955.828278, 0.002891, 0.000295, 0.001382, 0.014889, 0.000000, 0.982041, 13.886658, -21.943672, 49.449677, -0.002340, -0.035191, 1.071066

149372955.829294, -0.001655, 0.001485, -0.000441, 0.044666, 0.000000, 0.982041, 13.891840, -21.912619, 49.398670, -0.002308, -0.035381, 1.071295

149372955.830308, 0.000772, 0.002051, -0.001030, 0.044666, 0.000000, 0.982041, 13.895986, -21.887775, 49.357864, -0.002253, -0.035562, 1.071500

149372955.831369, -0.000441, -0.000982, -0.001008, 0.029778, 0.000000, 0.982041, 13.899302, -21.908718, 49.511810, -0.002211, -0.035468, 1.071180

149372955.832383, -0.002225, -0.000662, -0.000389, 0.029778, 0.000000, 0.982041, 13.819811, -21.925472, 49.634968, -0.002188, -0.035371, 1.070938

149372955.833402, -0.002178, -0.000648, -0.002474, 0.029778, 0.000000, 0.966453, 13.756217, -21.938875, 49.733494, -0.002165, -0.035287, 1.070747

149372955.834462, 0.000259, -0.001233, -0.001525, 0.029778, 0.000000, 0.966453, 13.705342, -21.949598, 49.812317, -0.002118, -0.035210, 1.070611

149372955.835476, -0.000643, -0.002104, 0.000002, 0.029778, -0.015483, 0.982041, 13.787861, -21.978584, 49.828728, -0.002396, -0.035130, 1.070124

149372955.836490, 0.002660, -0.001162, -0.000895, 0.029778, -0.015483, 0.982041, 13.853875, -22.001774, 49.841854, -0.002636, -0.035042, 1.069602

149372955.837550, 0.000809, -0.001138, -0.000577, 0.029778, 0.000000, 0.966453, 13.906687, -22.020325, 49.852356, -0.002574, -0.034969, 1.069387

149372955.838564, 0.004380, -0.002310, -0.000565, 0.029778, 0.000000, 0.966453, 13.866791, -21.953533, 49.767464, -0.002479, -0.034909, 1.069177

149372955.839579, 0.002793, -0.000467, -0.001450, 0.029778, -0.015483, 0.982041, 13.834874, -21.900099, 49.699547, -0.002715, -0.034818, 1.068637

149372955.840639, 0.000641, 0.003729, 0.001870, 0.029778, -0.015483, 0.982041, 13.809340, -21.857351, 49.645214, -0.002969, -0.034686, 1.068141

149372955.841654, 0.003618, -0.002330, -0.000263, 0.029778, 0.031033, 0.982041, 13.706768, -21.884378, 49.578426, -0.002242, -0.034614, 1.068578

149372955.842715, 0.003841, -0.001384, 0.001836, 0.029778, 0.031033, 0.982041, 13.624710, -21.906000, 49.524994, -0.001528, -0.034534, 1.069090

149372955.843731, 0.004452, 0.002281, 0.003363, 0.059555, -0.015483, 0.982041, 13.559064, -21.923298, 49.482250, -0.001759, -0.035037, 1.069919

149372955.844744, -0.001024, 0.007615, 0.002096, 0.059555, -0.015483, 0.982041, 13.506547, -21.937136, 49.448055, -0.002039, -0.035478, 1.070763

149372955.845807, -0.003773, 0.000590, 0.000264, 0.014889, 0.000000, 0.982041, 13.546679, -21.927797, 49.560642, -0.002032, -0.035066, 1.070203

149372955.846821, -0.003694, -0.000618, -0.000041, 0.014889, 0.000000, 0.982041, 13.578785, -21.920328, 49.650711, -0.002023, -0.034674, 1.069626

149372955.847836, 0.001766, -0.000306, 0.000259, 0.014889, 0.000000, 0.982041, 13.604469, -21.914352, 49.722767, -0.001959, -0.034288, 1.069046

149372955.848895, -0.000065, -0.000300, 0.000851, 0.014889, 0.000000, 0.997629, 13.686625, -21.909571, 49.687115, -0.001915, -0.033904, 1.068417

149372955.849909, -0.003951, 0.000903, 0.002328, 0.014889, 0.000000, 0.997629, 13.752351, -21.905746, 49.658592, -0.001910, -0.033516, 1.067769

149372955.850923, 0.000020, -0.000611, -0.000711, 0.029778, 0.000000, 0.997629, 13.804931, -21.902687, 49.635777, -0.001872, -0.033449, 1.067576

149372955.851982, -0.001177, -0.000598, -0.000696, 0.029778, 0.000000, 0.997629, 13.764850, -21.900240, 49.664173, -0.001846, -0.033383, 1.067415

149372955.852996, 0.001240, -0.001483, -0.000980, 0.044666, 0.000000, 0.982041, 13.732785, -21.898281, 49.686890, -0.001794, -0.033639, 1.067829

149372955.854010, -0.001178, -0.002349, -0.000660, 0.044666, 0.000000, 0.982041, 13.707133, -21.896715, 49.705063, -0.001767, -0.033898, 1.068257

149372955.855070, -0.002947, 0.000093, 0.000251, 0.059555, -0.015483, 0.982041, 13.666076, -21.915869, 49.696274, -0.002068, -0.034436, 1.068997

149372955.856107, -0.007528, 0.001314, -0.000055, 0.059555, -0.015483, 0.982041, 13.633229, -21.931192, 49.689243, -0.002408, -0.034950, 1.069750

149372955.857126, 0.000719, 0.001925, 0.001167, 0.029778, 0.000000, 0.982041, 13.606952, -21.943451, 49.683620, -0.002353, -0.034838, 1.069707

149372955.858140, -0.000198, -0.001129, 0.001777, 0.029778, 0.000000, 0.982041, 13.585930, -21.953259, 49.679123, -0.002309, -0.034759, 1.069690

149372955.859199, -0.000809, 0.001314, -0.000361, 0.014889, 0.000000, 0.982041, 13.630722, -21.961103, 49.652199, -0.002265, -0.034354, 1.069102

149372955.860215, 0.002551, -0.002656, -0.000361, 0.014889, 0.000000, 0.982041, 13.666555, -21.967381, 49.630661, -0.002189, -0.033998, 1.068503

149372955.861238, -0.001420, 0.000093, 0.001472, 0.029778, 0.000000, 0.982041, 13.695222, -21.972403, 49.613430, -0.002160, -0.033924, 1.068438

149372955.862258, -0.002641, 0.000093, -0.002498, 0.029778, 0.000000, 0.982041, 13.636010, -21.915195, 49.622971, -0.002143, -0.033852, 1.068353

149372955.863323, -0.002335, 0.001620, -0.002804, 0.029778, 0.000000, 0.982041, 13.588640, -21.869429, 49.630600, -0.002124, -0.033764, 1.068281

149372955.864347, -0.002946, 0.001009, -0.000360, 0.029778, 0.000000, 0.982041, 13.550744, -21.832815, 49.636703, -0.002110, -0.033685, 1.068248

149372955.865346, 0.002246, -0.000518, 0.001778, 0.059555, 0.000000, 0.966453, 13.582037, -21.864750, 49.664913, -0.002032, -0.034246, 1.069361

149372955.866374, 0.000108, -0.000824, 0.001472, 0.059555, 0.000000, 0.966453, 13.607071, -21.890297, 49.687481, -0.001976, -0.034799, 1.070441

149372955.867443, 0.001941, -0.000213, 0.000250, 0.014889, 0.000000, 0.997629, 13.627098, -21.910734, 49.705536, -0.001910, -0.034404, 1.069819

149372955.868465, -0.001113, -0.000824, 0.001167, 0.014889, 0.000000, 0.997629, 13.622583, -22.029125, 49.719978, -0.001878, -0.034024, 1.069269

149372955.869477, -0.000502, -0.001434, 0.001777, 0.044666, -0.015483, 0.966453, 13.618972, -22.123838, 49.731533, -0.002165, -0.034283, 1.069575

149372955.870503, 0.003468, -0.000518, 0.000556, 0.044666, -0.015483, 0.966453, 13.616082, -22.199610, 49.740776, -0.002405, -0.034528, 1.069894

149372955.871526, 0.006827, -0.001129, 0.001777, 0.044666, -0.015483, 0.997629, 13.613770, -22.260225, 49.748173, -0.002598, -0.034745, 1.070201

149372955.872591, 0.001329, 0.000398, -0.000972, 0.044666, -0.015483, 0.997629, 13.632458, -22.206678, 49.754089, -0.002841, -0.034942, 1.070440

149372955.873609, -0.005695, 0.002231, -0.000972, 0.014889, 0.000000, 0.997629, 13.647408, -22.163839, 49.758823, -0.002836, -0.034521, 1.069893

149372955.874631, -0.002946, 0.000093, -0.002193, 0.014889, 0.000000, 0.997629, 13.659368, -22.129568, 49.762608, -0.002802, -0.034129, 1.069322

149372955.875653, 0.001330, 0.001620, 0.002693, 0.014889, 0.000000, 0.997629, 13.627863, -22.061337, 49.695663, -0.002729, -0.033729, 1.068806

149372955.876720, 0.000413, 0.001620, 0.002388, 0.029778, 0.000000, 0.997629, 13.602659, -22.006750, 49.642109, -0.002671, -0.033634, 1.068806

149372955.877741, 0.003467, -0.001740, -0.000666, 0.029778, 0.000000, 0.997629, 13.582496, -21.963081, 49.599266, -0.002582, -0.033576, 1.068770

149372955.878760, -0.004779, -0.000518, -0.000361, 0.059555, -0.015483, 0.966453, 13.586902, -21.968962, 49.611637, -0.002887, -0.034146, 1.069603

149372955.879781, 0.001024, -0.000824, 0.001777, 0.059555, -0.015483, 0.966453, 13.590426, -21.973667, 49.621536, -0.003129, -0.034707, 1.070441

149372955.880802, 0.002551, -0.000824, -0.000972, 0.014889, -0.015483, 0.982041, 13.593246, -21.977430, 49.629456, -0.003347, -0.034319, 1.069550

149372955.881867, 0.001330, -0.000518, -0.001277, 0.014889, -0.015483, 0.982041, 13.595502, -22.021257, 49.635788, -0.003573, -0.033936, 1.068690

149372955.882887, -0.005389, -0.001434, -0.000056, 0.044666, 0.000000, 0.982041, 13.576770, -22.056320, 49.617531, -0.003552, -0.034180, 1.069256

149372955.883907, -0.004473, 0.002231, 0.000555, 0.044666, 0.000000, 0.982041, 13.561785, -22.084370, 49.602924, -0.003523, -0.034382, 1.069838

149372955.884926, 0.001941, -0.000518, 0.002388, 0.044666, -0.015483, 0.982041, 13.549796, -22.106810, 49.591240, -0.003748, -0.034610, 1.070157

149372955.885991, 0.001025, 0.001620, 0.000555, 0.044666, -0.015483, 0.982041, 13.581279, -22.063538, 49.535248, -0.003976, -0.034811, 1.070411

149372955.887010, -0.000502, -0.000518, -0.000361, 0.044666, 0.000000, 0.982041, 13.606464, -22.028919, 49.490452, -0.003899, -0.035028, 1.070904

149372955.888029, 0.004995, 0.000703, 0.000249, 0.044666, 0.000000, 0.982041, 13.626613, -22.001225, 49.454617, -0.003769, -0.035229, 1.071368

149372955.889047, -0.000808, 0.000093, -0.000361, 0.059555, -0.015483, 0.950865, 13.622195, -22.019886, 49.495918, -0.004016, -0.035779, 1.072171

149372955.890112, -0.000197, 0.001314, -0.002499, 0.059555, -0.015483, 0.950865, 13.618661, -22.034815, 49.528961, -0.004252, -0.036305, 1.072946

149372955.891130, -0.003557, -0.000518, 0.001166, 0.029778, -0.015483, 0.997629, 13.615834, -22.046757, 49.555393, -0.004512, -0.036179, 1.072557

149372955.892149, -0.000503, 0.003452, 0.002388, 0.029778, -0.015483, 0.997629, 13.593036, -22.056311, 49.553215, -0.004737, -0.036015, 1.072209

149372955.893168, 0.004689, 0.001924, 0.002387, 0.029778, -0.015483, 0.966453, 13.574798, -22.063953, 49.551472, -0.004915, -0.035890, 1.071908

149372955.894233, -0.001114, -0.000824, -0.001278, 0.029778, -0.015483, 0.966453, 13.560206, -22.070068, 49.550079, -0.005148, -0.035795, 1.071589

149372955.895252, -0.000808, 0.001924, -0.000972, 0.044666, 0.000000, 0.966453, 13.548533, -22.074961, 49.548965, -0.005050, -0.035982, 1.072140

149372955.896271, 0.003773, 0.001313, 0.000860, 0.044666, 0.000000, 0.966453, 13.580268, -22.078875, 49.524750, -0.004909, -0.036172, 1.072676

149372955.897289, 0.004994, -0.001130, -0.000056, 0.044666, -0.030966, 0.966453, 13.605656, -22.082005, 49.505379, -0.005402, -0.036382, 1.072572

149372955.898354, -0.000504, 0.000092, -0.000972, 0.044666, -0.030966, 0.966453, 13.625966, -22.084509, 49.489880, -0.005940, -0.036575, 1.072446

149372955.899373, -0.001420, -0.002657, 0.001777, 0.029778, 0.000000, 0.982041, 13.683287, -22.106920, 49.617424, -0.005835, -0.036476, 1.072364

149372955.900398, -0.007222, -0.000213, 0.000555, 0.029778, 0.000000, 0.982041, 13.729143, -22.124849, 49.719460, -0.005791, -0.036355, 1.072248

149372955.901417, -0.001724, -0.000213, -0.000362, 0.029778, 0.000000, 0.982041, 13.765828, -22.139193, 49.801086, -0.005692, -0.036237, 1.072107

149372955.902483, -0.001113, -0.001130, -0.000056, 0.029778, 0.000000, 0.982041, 13.815713, -22.109852, 49.773094, -0.005589, -0.036131, 1.071926

149372955.903502, 0.000108, -0.001129, 0.002082, 0.029778, 0.000000, 0.966453, 13.855620, -22.086378, 49.750702, -0.005476, -0.036036, 1.071750

149372955.904521, 0.005911, 0.000398, 0.000554, 0.029778, 0.000000, 0.966453, 13.887547, -22.067600, 49.732788, -0.005308, -0.035928, 1.071533

149372955.905539, -0.002336, 0.002841, -0.000973, 0.029778, 0.000000, 0.966453, 13.872015, -22.032169, 49.695133, -0.005224, -0.035798, 1.071300

149372955.906604, -0.001725, 0.001008, 0.001165, 0.029778, 0.000000, 0.997629, 13.859590, -22.003824, 49.665009, -0.005137, -0.035669, 1.071058

149372955.907623, 0.000719, -0.003573, -0.001889, 0.029778, 0.000000, 0.997629, 13.849649, -21.981150, 49.640907, -0.005026, -0.035589, 1.070788

149372955.908641, -0.000197, 0.000398, -0.000362, 0.029778, 0.000000, 0.997629, 13.841698, -21.963009, 49.621628, -0.004927, -0.035471, 1.070536

149372955.909660, -0.001419, 0.000398, -0.000362, 0.029778, 0.000000, 0.997629, 13.814799, -21.948496, 49.629528, -0.004842, -0.035355, 1.070302

149372955.910724, 0.002246, -0.001129, -0.000972, 0.044666, -0.015483, 0.997629, 13.793281, -21.936886, 49.635849, -0.005031, -0.035554, 1.070314

149372955.911743, 0.004994, -0.000519, -0.002194, 0.044666, -0.015483, 0.997629, 13.776066, -21.927599, 49.640903, -0.005190, -0.035743, 1.070322

149372955.912767, 0.002245, 0.001925, 0.001471, 0.029778, 0.000000, 0.966453, 13.782830, -21.899761, 49.598301, -0.005064, -0.035625, 1.070147

149372955.913787, 0.001634, 0.004673, 0.000860, 0.029778, 0.000000, 0.966453, 13.788242, -21.877491, 49.564217, -0.004946, -0.035483, 1.069956

149372955.914806, 0.001023, 0.002229, -0.000361, 0.029778, -0.015483, 0.982041, 13.792572, -21.859674, 49.536949, -0.005151, -0.035354, 1.069422

149372955.915871, 0.000718, -0.000214, -0.000667, 0.029778, -0.015483, 0.982041, 13.796036, -21.865829, 49.538460, -0.005354, -0.035253, 1.068896

149372955.916890, -0.002642, -0.000214, 0.000555, 0.029778, 0.000000, 0.997629, 13.798806, -21.870752, 49.539669, -0.005273, -0.035148, 1.068683

149372955.917908, -0.002336, -0.001130, -0.000667, 0.029778, 0.000000, 0.997629, 13.801023, -21.874691, 49.540638, -0.005190, -0.035053, 1.068462

149372955.918927, 0.005299, -0.000825, -0.003110, 0.029778, 0.000000, 0.982041, 13.884941, -21.918659, 49.564735, -0.005032, -0.034968, 1.068197

149372955.919992, 0.001328, 0.000397, -0.003110, 0.029778, 0.000000, 0.982041, 13.952076, -21.953833, 49.584015, -0.004916, -0.034871, 1.067904

149372955.921011, -0.000504, -0.000519, -0.002193, 0.044666, 0.000000, 0.982041, 14.005784, -21.981972, 49.599438, -0.004821, -0.035087, 1.068131

149372955.922030, -0.003253, -0.000519, -0.002193, 0.044666, 0.000000, 0.982041, 14.048750, -22.004482, 49.611774, -0.004755, -0.035299, 1.068332

149372955.923049, 0.003772, -0.000214, -0.000055, 0.014889, -0.015483, 0.966453, 13.980441, -21.961267, 49.621643, -0.004932, -0.034897, 1.067223

149372955.924114, 0.000412, -0.003268, -0.000666, 0.014889, -0.015483, 0.966453, 13.925795, -21.926695, 49.629539, -0.005139, -0.034536, 1.066153

149372955.925133, -0.002031, -0.000824, -0.000971, 0.044666, 0.000000, 0.966453, 13.882077, -21.899036, 49.635857, -0.005054, -0.034776, 1.066511

149372955.926152, 0.004382, 0.001619, -0.000360, 0.044666, 0.000000, 0.966453, 13.806030, -21.856503, 49.594261, -0.004907, -0.034987, 1.066905

149372955.927171, 0.004687, 0.001619, 0.000251, 0.044666, 0.000000, 0.966453, 13.745193, -21.822475, 49.560986, -0.004760, -0.035194, 1.067327

149372955.928228, 0.003160, -0.002046, 0.000556, 0.044666, 0.000000, 0.966453, 13.696523, -21.795254, 49.534367, -0.004630, -0.035434, 1.067768

149372955.929254, 0.003465, -0.000824, 0.001778, 0.029778, -0.030966, 0.935277, 13.698660, -21.895926, 49.583042, -0.005163, -0.035360, 1.067078

149372955.930277, -0.002033, -0.000213, -0.001887, 0.029778, -0.030966, 0.935277, 13.700370, -21.976463, 49.621983, -0.005741, -0.035282, 1.066399

149372955.931298, -0.003865, 0.001314, -0.000971, 0.014889, 0.000000, 0.997629, 13.701737, -22.040894, 49.653137, -0.005659, -0.034863, 1.065846

149372955.932365, 0.002243, 0.001008, -0.002498, 0.014889, 0.000000, 0.997629, 13.702831, -22.092438, 49.678059, -0.005516, -0.034456, 1.065307

149372955.933385, -0.000506, -0.000519, -0.000665, 0.014889, 0.000000, 0.997629, 13.703707, -22.133673, 49.697998, -0.005406, -0.034072, 1.064814

149372955.934406, 0.003770, -0.002046, 0.000251, 0.014889, 0.000000, 0.966453, 13.704407, -22.166660, 49.713947, -0.005256, -0.033720, 1.064369

149372955.935426, 0.004686, -0.000824, 0.002083, 0.014889, 0.000000, 0.966453, 13.704967, -22.193050, 49.726707, -0.005101, -0.033363, 1.063962

149372955.936447, 0.002853, 0.001314, -0.000360, 0.059555, 0.000000, 0.982041, 13.705415, -22.112122, 49.713593, -0.004955, -0.033891, 1.065103

149372955.937513, 0.003464, -0.002656, 0.000251, 0.059555, 0.000000, 0.982041, 13.705773, -22.047379, 49.703098, -0.004806, -0.034449, 1.066205

149372955.938534, 0.004685, -0.001740, 0.000862, 0.029778, -0.015483, 0.982041, 13.706060, -21.995584, 49.694702, -0.004978, -0.034382, 1.065877

149372955.939555, -0.001424, 0.000704, -0.001276, 0.029778, -0.015483, 0.982041, 13.644681, -22.015373, 49.641338, -0.005207, -0.034292, 1.065586

149372955.940576, -0.001423, -0.001740, 0.000862, 0.029778, 0.000000, 0.997629, 13.595577, -22.031204, 49.598648, -0.005118, -0.034221, 1.065647

149372955.941597, 0.000104, -0.000518, 0.001472, 0.029778, 0.000000, 0.997629, 13.556294, -22.043869, 49.564495, -0.005015, -0.034138, 1.065745

149372955.942664, -0.001118, 0.003147, 0.001167, 0.044666, 0.000000, 0.997629, 13.627549, -22.074409, 49.537174, -0.004924, -0.034316, 1.066325

149372955.943684, -0.002645, 0.002841, -0.001887, 0.044666, 0.000000, 0.997629, 13.684553, -22.098841, 49.515316, -0.004848, -0.034495, 1.066830

149372955.944705, -0.003866, -0.000518, -0.002193, 0.059555, -0.015483, 0.982041, 13.730157, -22.118385, 49.497829, -0.005094, -0.035025, 1.067596

149372955.945725, -0.005087, 0.000703, -0.001581, 0.059555, -0.015483, 0.982041, 13.766640, -22.134022, 49.483841, -0.005349, -0.035533, 1.068331

149372955.946792, -0.001422, -0.001129, -0.001276, 0.029778, 0.000000, 0.982041, 13.775290, -22.146530, 49.449326, -0.005256, -0.035441, 1.068248

149372955.947812, -0.006614, -0.002962, 0.000557, 0.029778, 0.000000, 0.982041, 13.782209, -22.156538, 49.421715, -0.005217, -0.035368, 1.068184

149372955.948833, -0.002032, -0.002350, 0.002084, 0.029778, 0.000000, 0.982041, 13.787745, -22.164543, 49.399628, -0.005134, -0.035291, 1.068135

149372955.949853, -0.000505, 0.000398, 0.001473, 0.029778, 0.000000, 0.982041, 13.751101, -22.089315, 49.428604, -0.005036, -0.035187, 1.068078

149372955.950873, 0.000412, 0.002231, 0.003305, 0.044666, -0.015483, 0.997629, 13.721786, -22.029133, 49.451786, -0.005242, -0.035357, 1.068261

149372955.951940, -0.004475, -0.001434, -0.000360, 0.044666, -0.015483, 0.997629, 13.698335, -21.980988, 49.470329, -0.005494, -0.035560, 1.068402

149372955.952960, -0.001115, -0.001434, 0.002694, 0.029778, 0.000000, 0.982041, 13.700109, -22.003696, 49.555138, -0.005396, -0.035469, 1.068357

149372955.953981, -0.002642, 0.002842, -0.000055, 0.029778, 0.000000, 0.982041, 13.701530, -22.021862, 49.622982, -0.005314, -0.035338, 1.068293

149372955.955001, -0.002642, 0.000093, -0.000361, 0.044666, 0.000000, 0.997629, 13.702665, -22.036396, 49.677258, -0.005232, -0.035524, 1.068743

149372955.956067, -0.001114, 0.001314, -0.002804, 0.044666, 0.000000, 0.997629, 13.703574, -22.007206, 49.674030, -0.005136, -0.035693, 1.069147

149372955.957087, 0.002856, 0.000703, 0.000251, 0.014889, 0.000000, 0.997629, 13.704301, -21.983854, 49.671448, -0.004998, -0.035272, 1.068527

149372955.958108, 0.000412, -0.000824, 0.001778, 0.014889, 0.000000, 0.997629, 13.704883, -21.965174, 49.669384, -0.004889, -0.034875, 1.067927

149372955.959128, -0.000198, -0.000213, 0.001167, 0.044666, 0.000000, 0.982041, 13.705348, -21.950228, 49.667732, -0.004791, -0.035087, 1.068391

149372955.960149, 0.001634, 0.001009, 0.000556, 0.044666, 0.000000, 0.982041, 13.685184, -21.917864, 49.643085, -0.004677, -0.035284, 1.068841

149372955.961215, 0.001634, 0.001314, 0.001472, 0.044666, 0.000000, 1.028805, 13.669052, -21.891972, 49.623371, -0.004565, -0.035431, 1.069220

149372955.962236, -0.004169, 0.001009, -0.000972, 0.014889, -0.015483, 1.028805, 13.656147, -21.871258, 49.607597, -0.004807, -0.034997, 1.068256

149372955.963258, -0.003863, -0.000213, -0.000972, 0.014889, -0.015483, 1.028805, 13.727968, -21.895504, 49.594978, -0.005040, -0.034584, 1.067272

149372955.964278, 0.001635, 0.005285, 0.002388, 0.029778, -0.015483, 0.950865, 13.785425, -21.914900, 49.584885, -0.005249, -0.034463, 1.066873

149372955.965299, -0.000503, 0.005590, 0.000250, 0.029778, -0.015483, 0.950865, 13.831390, -21.930418, 49.576809, -0.005474, -0.034341, 1.066433

149372955.966367, 0.000413, -0.001130, -0.000666, 0.029778, -0.015483, 0.997629, 13.847627, -21.922424, 49.640320, -0.005669, -0.034261, 1.065944

149372955.967389, 0.002245, -0.000824, -0.001277, 0.029778, -0.015483, 0.997629, 13.860616, -21.916029, 49.691128, -0.005842, -0.034178, 1.065446

149372955.968409, -0.000809, 0.002230, 0.002388, 0.029778, 0.000000, 0.982041, 13.871007, -21.910913, 49.731777, -0.005733, -0.034079, 1.065307

149372955.969429, -0.002947, 0.004367, 0.004831, 0.029778, 0.000000, 0.982041, 13.817711, -21.886412, 49.740971, -0.005649, -0.033960, 1.065221

149372955.970450, 0.000108, 0.003145, 0.002693, 0.029778, -0.015483, 0.982041, 13.775074, -21.866810, 49.748325, -0.005851, -0.033853, 1.064831

149372955.971519, -0.000198, 0.001923, 0.001471, 0.029778, -0.015483, 0.982041, 13.740964, -21.851130, 49.754211, -0.006051, -0.033760, 1.064455

149372955.972540, 0.001329, 0.000396, 0.000860, 0.029778, 0.000000, 0.982041, 13.713676, -21.838585, 49.758919, -0.005917, -0.033688, 1.064401

149372955.973564, -0.000809, 0.000091, 0.000249, 0.029778, 0.000000, 0.982041, 13.753455, -21.889774, 49.692711, -0.005807, -0.033619, 1.064334

149372955.974591, -0.000198, -0.001436, -0.000056, 0.029778, 0.000000, 0.982041, 13.785278, -21.930725, 49.639748, -0.005692, -0.033568, 1.064257

149372955.975615, -0.001725, 0.001007, 0.001471, 0.029778, 0.000000, 0.982041, 13.810737, -21.963486, 49.597374, -0.005596, -0.033493, 1.064192

149372955.976639, 0.002246, 0.000396, -0.000362, 0.044666, -0.030966, 0.966453, 13.769494, -21.948877, 49.656773, -0.006103, -0.033741, 1.064079

149372955.977663, -0.005695, 0.001312, -0.001278, 0.044666, -0.030966, 0.966453, 13.736501, -21.937191, 49.704292, -0.006678, -0.033975, 1.063980

149372955.978731, -0.004167, -0.001131, -0.002194, 0.029778, -0.015483, 0.982041, 13.710106, -21.927843, 49.742306, -0.006902, -0.033912, 1.063636

149372955.979754, -0.000197, 0.000396, -0.002499, 0.029778, -0.015483, 0.982041, 13.688990, -21.879547, 49.656097, -0.007080, -0.033835, 1.063291

149372955.980777, -0.002335, -0.002047, -0.002194, 0.014889, 0.000000, 0.982041, 13.672097, -21.840910, 49.587132, -0.006956, -0.033484, 1.062734

149372955.981800, -0.002029, -0.000215, 0.000555, 0.014889, 0.000000, 0.982041, 13.658583, -21.810001, 49.531960, -0.006833, -0.033122, 1.062213

149372955.982822, 0.002858, -0.003879, 0.000250, 0.044666, 0.000000, 0.997629, 13.647771, -21.785275, 49.487823, -0.006665, -0.033391, 1.062731

149372955.983889, 0.003468, -0.002963, -0.000361, 0.044666, 0.000000, 0.997629, 13.741803, -21.989983, 49.499161, -0.006492, -0.033648, 1.063243

149372955.984910, -0.000808, 0.000092, -0.001888, 0.014889, -0.015483, 0.997629, 13.817029, -22.153749, 49.508228, -0.006673, -0.033269, 1.062402

149372955.985930, -0.005083, 0.000397, -0.000361, 0.014889, -0.015483, 0.997629, 13.877210, -22.284763, 49.515484, -0.006893, -0.032894, 1.061608

149372955.986939, 0.000720, 0.001008, 0.002693, 0.014889, -0.015483, 0.966453, 13.863746, -22.226309, 49.567936, -0.007063, -0.032531, 1.060850

149372955.988011, 0.004079, 0.000397, 0.002388, 0.014889, -0.015483, 0.966453, 13.852975, -22.179544, 49.609898, -0.007193, -0.032181, 1.060094

149372955.989034, 0.005606, 0.003145, -0.000056, 0.014889, 0.000000, 0.997629, 13.844357, -22.142134, 49.643467, -0.006989, -0.031806, 1.059620

149372955.990054, 0.004384, -0.003574, -0.001278, 0.029778, 0.000000, 0.997629, 13.755319, -22.050980, 49.646999, -0.006805, -0.031802, 1.059677

149372955.991075, 0.001940, -0.002046, -0.002499, 0.029778, 0.000000, 0.997629, 13.684087, -21.978056, 49.649826, -0.006650, -0.031783, 1.059741

149372955.992097, -0.006612, 0.001619, -0.003721, 0.014889, 0.000000, 0.950865, 13.627102, -21.919718, 49.652084, -0.006579, -0.031446, 1.059321

149372955.993164, -0.000809, -0.000825, -0.003110, 0.014889, 0.000000, 0.950865, 13.622586, -21.893456, 49.653893, -0.006452, -0.031141, 1.058905

149372955.994184, 0.001634, -0.004795, -0.001277, 0.044666, 0.000000, 0.966453, 13.618974, -21.872446, 49.655338, -0.006301, -0.031487, 1.059586

149372955.995204, 0.004688, -0.001129, -0.000666, 0.044666, 0.000000, 0.966453, 13.616084, -21.855639, 49.656494, -0.006123, -0.031790, 1.060254

149372955.996232, 0.002550, 0.003146, -0.001277, 0.029778, -0.015483, 0.997629, 13.613772, -21.842192, 49.657421, -0.006285, -0.031719, 1.060014

149372955.997253, -0.003864, 0.004368, 0.001472, 0.029778, -0.015483, 0.997629, 13.652996, -21.851843, 49.634838, -0.006508, -0.031636, 1.059783

149372955.998275, -0.003558, 0.002840, 0.000556, 0.029778, -0.015483, 0.982041, 13.684375, -21.859564, 49.616772, -0.006729, -0.031580, 1.059539

149372955.999343, -0.000504, -0.001741, -0.001277, 0.029778, -0.015483, 0.982041, 13.709477, -21.865740, 49.602318, -0.006914, -0.031572, 1.059266

149372956.000364, 0.001024, 0.005283, -0.003720, 0.059555, -0.046450, 0.982041, 13.667951, -21.850273, 49.544109, -0.007705, -0.032103, 1.059492

149372956.001384, -0.000504, -0.000520, 0.001472, 0.059555, -0.046450, 0.982041, 13.634729, -21.837900, 49.497543, -0.008497, -0.032682, 1.059786

149372956.002406, -0.001420, 0.000396, 0.000251, 0.044666, 0.000000, 0.997629, 13.608152, -21.828001, 49.460289, -0.008338, -0.032916, 1.060396

149372956.003428, -0.001725, -0.000520, -0.000055, 0.044666, 0.000000, 0.997629, 13.648499, -21.881306, 49.477131, -0.008185, -0.033156, 1.060983

149372956.004494, -0.005390, 0.004061, -0.001276, 0.014889, 0.000000, 0.997629, 13.680778, -21.923950, 49.490604, -0.008073, -0.032751, 1.060499

149372956.005515, -0.001114, 0.004061, 0.002083, 0.014889, 0.000000, 0.997629, 13.706600, -21.958065, 49.501385, -0.007920, -0.032355, 1.060056

149372956.006535, 0.000719, 0.002228, 0.002083, 0.044666, 0.000000, 1.013217, 13.747794, -21.924133, 49.579983, -0.007752, -0.032565, 1.060594

149372956.007560, 0.000108, -0.002048, -0.000666, 0.044666, 0.000000, 1.013217, 13.780749, -21.896988, 49.642860, -0.007593, -0.032813, 1.061063

149372956.008581, -0.001419, -0.003269, -0.000360, 0.014889, 0.000000, 1.013217, 13.807114, -21.875271, 49.693161, -0.007450, -0.032486, 1.060478

149372956.009650, -0.002030, -0.003880, -0.000971, 0.014889, 0.000000, 1.013217, 13.828205, -21.857899, 49.733402, -0.007317, -0.032173, 1.059877

149372956.010673, 0.004079, -0.001131, 0.002083, 0.059555, 0.000000, 0.982041, 13.824542, -21.925632, 49.742271, -0.007115, -0.032748, 1.060973

149372956.011695, 0.000414, 0.001007, 0.002083, 0.059555, 0.000000, 0.982041, 13.821611, -21.979820, 49.749367, -0.006955, -0.033290, 1.062068

149372956.012721, 0.000414, 0.002229, 0.002083, 0.029778, -0.015483, 0.950865, 13.819267, -22.023170, 49.755043, -0.007138, -0.033227, 1.061793

149372956.013744, 0.002552, 0.002228, -0.002498, 0.029778, -0.015483, 0.950865, 13.776319, -21.996626, 49.782909, -0.007294, -0.033165, 1.061497

149372956.015523, 0.002857, -0.001437, -0.000360, 0.029778, 0.000000, 0.982041, 13.741960, -21.975389, 49.805202, -0.007098, -0.033133, 1.061522

149372956.016290, 0.000413, -0.002658, -0.001582, 0.029778, 0.000000, 0.982041, 13.714473, -21.958401, 49.823036, -0.006953, -0.033097, 1.061554

149372956.017045, 0.003162, 0.002228, -0.000666, 0.029778, 0.000000, 0.982041, 13.754092, -21.965218, 49.813980, -0.006791, -0.033024, 1.061568

149372956.017884, 0.002245, 0.001617, 0.001472, 0.029778, 0.000000, 0.982041, 13.785788, -21.970671, 49.806736, -0.006637, -0.032957, 1.061578

149372956.018905, -0.003863, 0.001923, -0.002193, 0.029778, 0.000000, 0.982041, 13.811144, -21.975035, 49.800938, -0.006543, -0.032885, 1.061537

149372956.019926, -0.000809, -0.001742, -0.000055, 0.044666, -0.015483, 0.966453, 13.790357, -21.937710, 49.772976, -0.006739, -0.033169, 1.061783

149372956.020947, 0.000108, -0.000521, -0.000971, 0.044666, -0.015483, 0.966453, 13.773726, -21.907848, 49.750607, -0.006921, -0.033436, 1.062014

149372956.022012, 0.004383, 0.001923, 0.000251, 0.044666, -0.015483, 0.966453, 13.760423, -21.883961, 49.732712, -0.007056, -0.033672, 1.062253

149372956.023033, 0.001940, -0.003575, 0.000556, 0.044666, -0.015483, 0.966453, 13.749780, -21.864849, 49.718395, -0.007214, -0.033958, 1.062490

149372956.024053, -0.000809, 0.000701, -0.002192, 0.029778, -0.046450, 0.982041, 13.720729, -21.910786, 49.636971, -0.008021, -0.033859, 1.061486

149372956.025073, -0.000809, -0.000520, -0.000360, 0.029778, -0.046450, 0.982041, 13.697488, -21.947535, 49.571831, -0.008812, -0.033774, 1.060555

149372956.026138, -0.001114, -0.000520, -0.000665, 0.029778, 0.000000, 0.982041, 13.678895, -21.976933, 49.519718, -0.008648, -0.033711, 1.060637

149372956.027158, -0.001114, 0.002228, 0.000862, 0.029778, 0.000000, 0.982041, 13.746166, -21.980043, 49.571323, -0.008487, -0.033620, 1.060688

149372956.028177, 0.000413, -0.000521, 0.000251, 0.029778, 0.000000, 0.982041, 13.799983, -21.982533, 49.612610, -0.008313, -0.033559, 1.060697

149372956.029196, 0.002245, 0.003450, 0.000862, 0.029778, 0.000000, 0.982041, 13.843037, -21.984524, 49.645638, -0.008125, -0.033460, 1.060683

149372956.030220, -0.001115, -0.003575, -0.001887, 0.014889, 0.000000, 0.982041, 13.795335, -21.986116, 49.648735, -0.007969, -0.033132, 1.060158

149372956.031288, 0.000718, -0.003269, -0.000970, 0.014889, 0.000000, 0.982041, 13.757173, -21.987391, 49.651215, -0.007798, -0.032809, 1.059678

149372956.032309, 0.003772, -0.000825, -0.000054, 0.044666, 0.000000, 0.997629, 13.726644, -21.988409, 49.653198, -0.007600, -0.033054, 1.060269

149372956.033330, 0.001023, 0.001312, 0.002084, 0.044666, 0.000000, 0.997629, 13.702220, -21.989225, 49.654785, -0.007435, -0.033272, 1.060887

149372956.034350, 0.004382, -0.001131, -0.001276, 0.029778, -0.015483, 0.982041, 13.662145, -22.112328, 49.609406, -0.007557, -0.033224, 1.060721

149372956.035372, 0.001022, 0.000702, 0.000862, 0.029778, -0.015483, 0.982041, 13.630084, -22.210808, 49.573101, -0.007711, -0.033158, 1.060642

149372956.036440, 0.003160, -0.000215, -0.002192, 0.014889, 0.000000, 0.982041, 13.604436, -22.289593, 49.544060, -0.007521, -0.032802, 1.060361

149372956.037460, -0.000200, 0.004977, -0.001581, 0.014889, 0.000000, 0.982041, 13.583918, -22.230171, 49.590797, -0.007370, -0.032400, 1.060083

149372956.038481, 0.002549, 0.004060, -0.000359, 0.014889, 0.000000, 0.982041, 13.567503, -22.182634, 49.628189, -0.007194, -0.032016, 1.059816

149372956.039501, 0.004381, 0.001311, -0.000054, 0.014889, 0.000000, 0.982041, 13.554371, -22.144606, 49.658100, -0.007005, -0.031667, 1.059552

149372956.040522, -0.000506, 0.001311, 0.000862, 0.014889, 0.000000, 0.950865, 13.626011, -22.073366, 49.682030, -0.006867, -0.031335, 1.059243

149372956.041588, 0.004991, -0.000216, 0.003000, 0.014889, 0.000000, 0.950865, 13.683323, -22.016375, 49.701176, -0.006676, -0.031024, 1.058902

149372956.042609, 0.002548, -0.001132, 0.000862, 0.029778, -0.015483, 0.997629, 13.729173, -21.970781, 49.716492, -0.006827, -0.031011, 1.058682

149372956.043629, -0.002033, 0.002533, -0.000054, 0.029778, -0.015483, 0.997629, 13.745317, -21.954714, 49.658772, -0.007021, -0.030961, 1.058439

149372956.044650, -0.000506, 0.000089, -0.002192, 0.029778, -0.015483, 0.982041, 13.758231, -21.941860, 49.612595, -0.007200, -0.030946, 1.058176

149372956.045704, -0.000811, -0.001438, 0.000862, 0.044666, -0.015483, 0.982041, 13.768563, -21.931578, 49.575653, -0.007378, -0.031252, 1.058485

149372956.046731, 0.000716, 0.001616, -0.000970, 0.044666, -0.015483, 0.982041, 13.776829, -21.923351, 49.546101, -0.007536, -0.031521, 1.058758

149372956.047753, -0.004477, 0.000395, -0.000054, -0.015630, -0.030966, 0.950865, 13.783441, -21.957586, 49.545780, -0.008029, -0.030532, 1.056549

149372956.048775, 0.000105, 0.001005, -0.000359, -0.015630, -0.030966, 0.950865, 13.788731, -21.984974, 49.545525, -0.008468, -0.029558, 1.054392

149372956.049798, 0.006519, -0.002660, 0.002084, 0.044666, -0.015483, 0.966453, 13.792962, -22.006886, 49.545322, -0.008551, -0.029918, 1.054821

149372956.050863, 0.001326, 0.002532, 0.001473, 0.044666, -0.015483, 0.966453, 13.796348, -22.024414, 49.591808, -0.008684, -0.030218, 1.055242

149372956.051883, 0.000715, 0.004059, 0.000557, 0.044666, 0.000000, 0.997629, 13.799056, -22.038437, 49.628998, -0.008499, -0.030465, 1.055893

149372956.052904, 0.002853, 0.005280, 0.003305, 0.044666, 0.000000, 0.997629, 13.801223, -22.049656, 49.658749, -0.008297, -0.030695, 1.056563

149372956.053924, 0.001937, 0.001309, 0.002389, 0.029778, -0.015483, 0.982041, 13.700274, -21.997406, 49.659225, -0.008427, -0.030673, 1.056447

149372956.054990, -0.000812, 0.001309, -0.000055, 0.029778, -0.015483, 0.982041, 13.619515, -21.955606, 49.659607, -0.008582, -0.030652, 1.056350

149372956.056011, 0.000410, 0.001309, -0.000360, 0.029778, 0.000000, 0.982041, 13.554909, -21.922167, 49.659912, -0.008407, -0.030631, 1.056588

149372956.057031, -0.001117, 0.000698, -0.000666, 0.029778, 0.000000, 0.982041, 13.646977, -21.915823, 49.660156, -0.008250, -0.030617, 1.056751

149372956.058051, 0.001020, -0.002050, -0.001582, 0.029778, -0.015483, 0.982041, 13.720633, -21.910748, 49.660351, -0.008389, -0.030631, 1.056543

149372956.059072, -0.003561, -0.001745, -0.001276, 0.029778, -0.015483, 0.982041, 13.779556, -21.906687, 49.660507, -0.008572, -0.030641, 1.056298

149372956.060140, -0.004171, -0.001745, -0.001581, 0.029778, -0.015483, 0.966453, 13.826695, -21.903439, 49.660629, -0.008764, -0.030662, 1.056032

149372956.061160, 0.003159, 0.001615, -0.000360, 0.029778, -0.015483, 0.966453, 13.823335, -21.921247, 49.660728, -0.008877, -0.030648, 1.055794

149372956.062180, 0.003159, -0.001439, -0.000970, 0.029778, 0.000000, 0.982041, 13.820645, -21.935495, 49.660809, -0.008668, -0.030655, 1.055857

149372956.063201, 0.004380, -0.002661, -0.002192, 0.029778, 0.000000, 0.982041, 13.818494, -21.946894, 49.660873, -0.008450, -0.030675, 1.055913

149372956.064226, 0.001631, 0.001615, -0.002497, 0.029778, 0.000000, 0.966453, 13.714091, -21.915195, 49.660923, -0.008264, -0.030661, 1.056041

149372956.065293, 0.002852, 0.002226, 0.000252, 0.029778, 0.000000, 0.966453, 13.630569, -21.889837, 49.660965, -0.008069, -0.030639, 1.056243

149372956.066313, 0.000714, 0.002836, 0.000863, 0.029778, 0.000000, 0.982041, 13.563751, -21.869551, 49.660995, -0.007901, -0.030604, 1.056468

149372956.067333, -0.001118, 0.001309, -0.000970, 0.029778, 0.000000, 0.982041, 13.571906, -21.853321, 49.707668, -0.007754, -0.030584, 1.056660

149372956.068353, -0.000507, -0.002967, -0.002497, 0.014889, -0.015483, 0.982041, 13.578430, -21.840338, 49.745007, -0.007914, -0.030303, 1.055981

149372956.069375, -0.003561, -0.000218, -0.003718, 0.014889, -0.015483, 0.982041, 13.583650, -21.829952, 49.774879, -0.008101, -0.030000, 1.055296

149372956.070442, 0.002242, 0.001615, -0.001885, 0.044666, 0.000000, 0.997629, 13.690506, -21.944092, 49.775455, -0.007910, -0.030275, 1.055969

149372956.071468, 0.001325, -0.001745, 0.000863, 0.044666, 0.000000, 0.997629, 13.775991, -22.035404, 49.775913, -0.007734, -0.030580, 1.056629

149372956.072490, -0.000202, 0.001615, -0.002496, 0.044666, -0.015483, 0.997629, 13.844379, -22.108454, 49.776279, -0.007888, -0.030848, 1.056933

149372956.073514, 0.002241, 0.001004, -0.002801, 0.044666, -0.015483, 0.997629, 13.899090, -22.166893, 49.776573, -0.008016, -0.031117, 1.057212

149372956.074538, 0.004990, 0.000698, -0.001274, 0.044666, -0.015483, 0.997629, 13.860713, -22.132011, 49.730160, -0.008113, -0.031384, 1.057513

149372956.075563, 0.005906, 0.000698, -0.000052, 0.059555, -0.015483, 0.950865, 13.830012, -22.104107, 49.693027, -0.008202, -0.032004, 1.058480

149372956.076586, 0.001019, 0.001309, -0.001885, 0.059555, -0.015483, 0.950865, 13.805451, -22.081783, 49.663322, -0.008338, -0.032605, 1.059419

149372956.077617, -0.001730, 0.000393, -0.001579, 0.029778, 0.000000, 0.997629, 13.724194, -22.002699, 49.639561, -0.008189, -0.032546, 1.059478

149372956.078685, 0.002546, 0.001614, -0.000663, 0.029778, 0.000000, 0.997629, 13.659187, -21.939432, 49.620548, -0.007999, -0.032474, 1.059567

149372956.079708, -0.001119, 0.001003, -0.002801, 0.014889, 0.000000, 0.982041, 13.607183, -21.888819, 49.605339, -0.007846, -0.032120, 1.059142

149372956.080730, -0.003868, -0.001135, -0.000968, 0.014889, 0.000000, 0.982041, 13.668260, -21.909552, 49.639820, -0.007724, -0.031794, 1.058712

149372956.081752, 0.004684, -0.000524, 0.000865, 0.029778, 0.000000, 0.982041, 13.717122, -21.926138, 49.667408, -0.007523, -0.031769, 1.058804

149372956.082773, -0.000203, 0.000393, -0.002495, 0.029778, 0.000000, 0.982041, 13.756211, -21.939407, 49.689476, -0.007373, -0.031736, 1.058838

149372956.083839, 0.003767, 0.000698, -0.001273, 0.029778, 0.000000, 0.982041, 13.787483, -21.950024, 49.707130, -0.007186, -0.031700, 1.058866

149372956.084858, 0.000407, 0.003141, -0.000967, 0.029778, 0.000000, 0.982041, 13.812501, -21.999332, 49.767902, -0.007038, -0.031641, 1.058900

149372956.085877, -0.000814, 0.000087, 0.000560, 0.044666, 0.000000, 0.997629, 13.832515, -22.038780, 49.816521, -0.006902, -0.031900, 1.059461

149372956.086895, -0.002647, -0.001440, 0.000254, 0.044666, 0.000000, 0.997629, 13.848526, -22.070337, 49.855415, -0.006787, -0.032170, 1.060009

149372956.087959, -0.001730, -0.002356, -0.001273, 0.029778, 0.000000, 0.982041, 13.820262, -22.013950, 49.769909, -0.006669, -0.032157, 1.060017

149372956.088978, 0.000408, -0.000218, -0.001578, 0.029778, 0.000000, 0.982041, 13.797651, -21.968842, 49.701504, -0.006532, -0.032123, 1.060020

149372956.089997, -0.001730, 0.000393, -0.000662, 0.014889, 0.000000, 0.982041, 13.779563, -21.932755, 49.646782, -0.006414, -0.031781, 1.059509

149372956.091016, 0.003157, 0.000698, -0.002189, 0.014889, 0.000000, 0.982041, 13.806165, -21.985518, 49.626328, -0.006250, -0.031443, 1.058997

149372956.092081, -0.002036, -0.000829, -0.000967, 0.029778, -0.015483, 0.950865, 13.827446, -22.027727, 49.609962, -0.006471, -0.031448, 1.058746

149372956.093100, -0.003257, -0.002662, -0.000356, 0.029778, -0.015483, 0.950865, 13.844471, -22.061495, 49.596870, -0.006699, -0.031471, 1.058508

149372956.094118, 0.000714, -0.002050, 0.000866, 0.059555, 0.000000, 0.982041, 13.817019, -22.047693, 49.586399, -0.006542, -0.032069, 1.059661

149372956.095135, 0.001935, 0.001004, 0.000560, 0.059555, 0.000000, 0.982041, 13.795056, -22.036652, 49.578022, -0.006377, -0.032625, 1.060800

149372956.096198, 0.002240, -0.002050, 0.000560, 0.044666, 0.000000, 0.997629, 13.777487, -22.027819, 49.571320, -0.006223, -0.032887, 1.061350

149372956.097219, 0.004378, -0.003272, 0.002087, 0.044666, 0.000000, 0.997629, 13.763431, -22.020752, 49.565956, -0.006052, -0.033155, 1.061912

149372956.098240, 0.005599, -0.000217, 0.003003, 0.044666, 0.000000, 0.966453, 13.772722, -22.035507, 49.561665, -0.005873, -0.033416, 1.062522

149372956.099258, 0.005598, 0.000393, 0.003308, 0.044666, 0.000000, 0.966453, 13.780156, -22.047312, 49.558231, -0.005697, -0.033666, 1.063121

149372956.100323, -0.005397, 0.001920, -0.000357, 0.029778, -0.015483, 0.997629, 13.786103, -22.056755, 49.555485, -0.005949, -0.033568, 1.062797

149372956.101342, -0.004480, -0.001134, -0.000052, 0.029778, -0.015483, 0.997629, 13.811397, -22.003086, 49.576614, -0.006184, -0.033503, 1.062444

149372956.102361, -0.000814, -0.000828, -0.001579, 0.029778, -0.015483, 0.997629, 13.831632, -21.960150, 49.593517, -0.006378, -0.033436, 1.062051

149372956.103381, -0.003258, -0.001134, -0.003716, 0.044666, 0.000000, 0.982041, 13.847819, -21.925800, 49.607040, -0.006279, -0.033686, 1.062472

149372956.104435, -0.003868, 0.003142, -0.002494, 0.044666, 0.000000, 0.982041, 13.860769, -21.918730, 49.617859, -0.006190, -0.033888, 1.062883

149372956.105461, -0.005089, 0.001004, -0.000661, 0.044666, 0.000000, 0.966453, 13.871129, -21.913073, 49.626511, -0.006115, -0.034122, 1.063323

149372956.106485, 0.001630, 0.000088, -0.001578, 0.044666, 0.000000, 0.966453, 13.879417, -21.908548, 49.633434, -0.005973, -0.034361, 1.063737

149372956.107506, 0.004073, -0.001439, 0.001171, 0.014889, 0.000000, 0.982041, 13.824439, -21.904928, 49.615650, -0.005807, -0.033994, 1.063129

149372956.108572, 0.003767, -0.002661, 0.003309, 0.014889, 0.000000, 0.982041, 13.780457, -21.902033, 49.601421, -0.005648, -0.033646, 1.062585

149372956.109592, 0.003462, 0.001004, 0.000865, 0.044666, -0.015483, 0.997629, 13.745271, -21.899715, 49.590038, -0.005809, -0.033859, 1.062788

149372956.110612, 0.000102, 0.001310, 0.001171, 0.044666, -0.015483, 0.997629, 13.717122, -21.897861, 49.580933, -0.006002, -0.034064, 1.063009

149372956.111630, -0.000509, 0.001310, 0.003003, 0.029778, -0.030966, 0.935277, 13.756211, -21.896379, 49.643620, -0.006549, -0.033997, 1.062385

149372956.112693, 0.000407, 0.000393, 0.003919, 0.029778, -0.030966, 0.935277, 13.787483, -21.895193, 49.693768, -0.007076, -0.033940, 1.061761

149372956.113711, 0.001323, -0.001745, 0.000254, 0.014889, 0.000000, 0.982041, 13.812501, -21.894243, 49.733887, -0.006916, -0.033584, 1.061188

149372956.114729, -0.000204, -0.001439, 0.000254, 0.014889, 0.000000, 0.982041, 13.853051, -21.913893, 49.696011, -0.006775, -0.033232, 1.060607

149372956.115747, 0.002240, -0.001134, 0.000559, 0.044666, 0.000000, 0.997629, 13.885491, -21.929611, 49.665710, -0.006615, -0.033472, 1.061051

149372956.116811, 0.001018, -0.002050, 0.001475, 0.044666, 0.000000, 0.997629, 13.911444, -21.942186, 49.641468, -0.006470, -0.033717, 1.061480

149372956.117831, -0.001120, 0.001005, -0.004633, 0.044666, -0.015483, 0.966453, 13.850060, -21.891022, 49.645401, -0.006670, -0.033958, 1.061616

149372956.118850, -0.006312, 0.000088, -0.004938, 0.044666, -0.015483, 0.966453, 13.800954, -21.850090, 49.648544, -0.006917, -0.034202, 1.061765

149372956.119869, -0.001730, 0.000088, 0.000560, 0.029778, 0.000000, 0.997629, 13.761668, -21.817345, 49.651062, -0.006796, -0.034115, 1.061702

149372956.120934, -0.000508, 0.000394, 0.001476, 0.029778, 0.000000, 0.997629, 13.689167, -21.913597, 49.676399, -0.006666, -0.034025, 1.061738

149372956.121953, -0.001425, 0.003142, -0.000662, 0.014889, 0.000000, 0.982041, 13.631166, -21.990601, 49.696671, -0.006543, -0.033618, 1.061317

149372956.122974, 0.000103, 0.001920, -0.000662, 0.014889, 0.000000, 0.982041, 13.584764, -22.052202, 49.712887, -0.006408, -0.033231, 1.060961

149372956.123992, 0.002546, 0.001615, 0.001782, 0.029778, 0.000000, 0.997629, 13.547644, -22.101484, 49.725861, -0.006255, -0.033146, 1.061186

149372956.125056, 0.003156, -0.001440, 0.000865, 0.029778, 0.000000, 0.997629, 13.600093, -22.059277, 49.736240, -0.006098, -0.033095, 1.061346

149372956.126075, -0.000203, -0.000218, -0.000051, 0.059555, -0.015483, 0.982041, 13.642053, -22.025511, 49.744541, -0.006280, -0.033650, 1.062284

149372956.127095, -0.005701, 0.000393, -0.000967, 0.059555, -0.015483, 0.982041, 13.675620, -21.998499, 49.751183, -0.006515, -0.034189, 1.063159

149372956.128117, -0.001424, 0.000393, 0.000560, 0.059555, -0.015483, 0.950865, 13.661401, -21.915665, 49.709846, -0.006712, -0.034756, 1.064076

149372956.129183, -0.001119, -0.001134, -0.001273, 0.059555, -0.015483, 0.950865, 13.650025, -21.849396, 49.676777, -0.006902, -0.035328, 1.064938

149372956.130204, -0.002341, 0.000393, -0.001578, 0.059555, 0.000000, 0.997629, 13.640925, -21.796381, 49.650322, -0.006775, -0.035806, 1.065945

149372956.131229, -0.003562, 0.001920, -0.000051, 0.044666, 0.000000, 0.997629, 13.633645, -21.856010, 49.582512, -0.006673, -0.035964, 1.066424

149372956.132249, 0.003157, 0.003752, -0.000967, 0.044666, 0.000000, 0.997629, 13.627821, -21.903713, 49.528263, -0.006506, -0.036101, 1.066905

149372956.133269, 0.001935, 0.000698, -0.002189, 0.014889, 0.000000, 0.982041, 13.623162, -21.941875, 49.484863, -0.006350, -0.035677, 1.066350

149372956.134334, 0.000103, 0.002225, -0.000661, 0.014889, 0.000000, 0.982041, 13.619435, -21.972406, 49.450146, -0.006217, -0.035245, 1.065834

149372956.135352, -0.003562, -0.001440, 0.000866, 0.044666, -0.030966, 0.966453, 13.616453, -21.996830, 49.422371, -0.006769, -0.035478, 1.065831

149372956.136371, 0.001019, -0.000524, 0.000255, 0.044666, -0.030966, 0.966453, 13.614068, -22.016369, 49.400150, -0.007264, -0.035696, 1.065831

149372956.137389, -0.000813, 0.000698, -0.001272, 0.044666, -0.015483, 0.997629, 13.612160, -22.032001, 49.382374, -0.007435, -0.035871, 1.066092

149372956.138454, -0.001424, -0.000524, -0.000967, 0.044666, -0.015483, 0.997629, 13.569560, -21.983282, 49.461449, -0.007610, -0.036055, 1.066365

149372956.139474, 0.002241, 0.001309, -0.000050, 0.044666, 0.000000, 0.997629, 13.535480, -21.944307, 49.524708, -0.007433, -0.036214, 1.066938

149372956.140496, 0.005600, 0.000087, 0.000866, 0.044666, 0.000000, 0.997629, 13.508217, -21.913128, 49.575317, -0.007226, -0.036381, 1.067519

149372956.141517, -0.003257, 0.001003, -0.000051, 0.029778, -0.015483, 0.982041, 13.465870, -21.928999, 49.569157, -0.007429, -0.036249, 1.067298

149372956.142538, 0.001019, -0.003883, 0.003003, 0.029778, -0.015483, 0.982041, 13.431992, -21.941696, 49.564228, -0.007586, -0.036168, 1.067142

149372956.143603, -0.001424, -0.004188, 0.001171, 0.029778, 0.000000, 0.982041, 13.404889, -21.951855, 49.560284, -0.007450, -0.036094, 1.067295

149372956.144626, -0.001730, -0.003577, 0.000560, 0.029778, 0.000000, 0.982041, 13.465353, -21.980389, 49.603779, -0.007319, -0.036014, 1.067407

149372956.145649, 0.000408, -0.002661, -0.000662, 0.029778, 0.000000, 0.982041, 13.513724, -22.003216, 49.638573, -0.007169, -0.035927, 1.067480

149372956.146673, 0.003462, 0.000088, -0.000051, 0.029778, 0.000000, 0.982041, 13.552421, -22.021479, 49.666409, -0.006991, -0.035813, 1.067538

149372956.147696, 0.001935, 0.003753, 0.000865, 0.059555, 0.000000, 0.982041, 13.583378, -22.036089, 49.688679, -0.006818, -0.036267, 1.068682

149372956.148763, 0.001629, -0.000523, 0.000560, 0.059555, 0.000000, 0.982041, 13.567071, -22.027369, 49.753139, -0.006652, -0.036755, 1.069812

149372956.149788, -0.002036, -0.005715, 0.000865, 0.029778, 0.000000, 0.982041, 13.554026, -22.020391, 49.804710, -0.006540, -0.036683, 1.069834

149372956.150813, 0.004683, -0.000828, 0.003003, 0.029778, 0.000000, 0.982041, 13.543590, -22.014811, 49.845966, -0.006363, -0.036564, 1.069884

149372956.151835, 0.001018, 0.001921, 0.000865, 0.044666, -0.015483, 0.982041, 13.576313, -21.989939, 49.739029, -0.006540, -0.036723, 1.070126

149372956.152859, -0.000814, 0.002226, -0.000968, 0.044666, -0.015483, 0.982041, 13.602492, -21.970041, 49.653477, -0.006731, -0.036876, 1.070315

149372956.153882, 0.001629, -0.001133, 0.000559, 0.014889, 0.000000, 0.966453, 13.623435, -21.954123, 49.585037, -0.006574, -0.036460, 1.069733

149372956.154904, 0.002239, 0.001004, 0.000559, 0.014889, 0.000000, 0.966453, 13.722335, -21.961796, 49.553608, -0.006414, -0.036031, 1.069097

149372956.155971, 0.000101, 0.002226, -0.003106, 0.044666, 0.000000, 0.982041, 13.801455, -21.967934, 49.528465, -0.006282, -0.036195, 1.069427

149372956.156995, -0.002342, 0.001615, -0.000967, 0.044666, 0.000000, 0.982041, 13.864750, -21.972845, 49.508350, -0.006178, -0.036363, 1.069730

149372956.158017, -0.000815, 0.000699, -0.000967, 0.044666, -0.046450, 0.966453, 13.833241, -22.017590, 49.538906, -0.007025, -0.036540, 1.069141

149372956.159036, 0.002850, -0.000523, 0.001781, 0.014889, -0.046450, 0.966453, 13.808035, -22.053385, 49.563351, -0.007800, -0.036088, 1.067490

149372956.160058, 0.000407, -0.002661, -0.000968, 0.014889, -0.046450, 0.966453, 13.787869, -22.082022, 49.582905, -0.008584, -0.035669, 1.065871

149372956.161122, -0.001426, -0.002661, -0.001884, 0.014889, 0.000000, 0.982041, 13.771737, -22.104931, 49.598549, -0.008421, -0.035289, 1.065304

149372956.162142, -0.002037, -0.001134, -0.001884, 0.014889, 0.000000, 0.982041, 13.758831, -22.041626, 49.564415, -0.008266, -0.034901, 1.064731

149372956.163150, -0.001425, -0.003271, -0.001273, 0.044666, 0.000000, 0.966453, 13.748507, -21.990982, 49.537109, -0.008112, -0.035157, 1.065243

149372956.164221, 0.002545, -0.000217, -0.000967, 0.044666, 0.000000, 0.966453, 13.740247, -21.950466, 49.515266, -0.007920, -0.035378, 1.065736

149372956.165214, 0.006209, 0.001005, -0.000051, 0.029778, 0.000000, 0.997629, 13.774712, -21.979279, 49.544437, -0.007701, -0.035257, 1.065639

149372956.166263, 0.006820, -0.001439, 0.001782, 0.029778, 0.000000, 0.997629, 13.802283, -22.002329, 49.567776, -0.007477, -0.035164, 1.065553

149372956.167291, -0.002343, -0.000828, 0.001171, 0.044666, 0.000000, 0.982041, 13.824341, -22.020769, 49.586445, -0.007349, -0.035376, 1.066004

149372956.168315, -0.003259, 0.002226, -0.001273, 0.044666, 0.000000, 0.982041, 13.800914, -21.994705, 49.578056, -0.007233, -0.035554, 1.066428

149372956.169339, 0.001933, 0.001615, -0.001883, 0.044666, 0.000000, 0.982041, 13.782172, -21.973854, 49.571346, -0.007066, -0.035734, 1.066843

149372956.170364, 0.000711, 0.001004, -0.000967, 0.044666, 0.000000, 0.982041, 13.767179, -21.957172, 49.565979, -0.006915, -0.035917, 1.067263

149372956.171434, -0.004175, 0.003142, 0.000866, 0.014889, -0.015483, 0.966453, 13.755185, -21.964235, 49.631657, -0.007132, -0.035470, 1.066339

149372956.172455, -0.003564, 0.001309, 0.001782, 0.014889, -0.015483, 0.966453, 13.745589, -21.969885, 49.684200, -0.007337, -0.035051, 1.065452

149372956.173476, 0.000712, 0.004669, 0.002392, 0.044666, -0.015483, 0.997629, 13.737913, -21.974405, 49.726234, -0.007493, -0.035199, 1.065652

149372956.174502, 0.005598, 0.003141, 0.001476, 0.044666, -0.015483, 0.997629, 13.731772, -21.978022, 49.759861, -0.007597, -0.035359, 1.065845

149372956.175526, -0.001427, 0.001003, 0.001476, 0.029778, 0.000000, 0.982041, 13.788468, -22.001324, 49.763439, -0.007460, -0.035248, 1.065782

149372956.176550, 0.001322, 0.003141, 0.002392, 0.029778, 0.000000, 0.982041, 13.833825, -22.019964, 49.766300, -0.007298, -0.035118, 1.065704

149372956.177574, 0.002849, 0.001613, 0.000559, 0.029778, -0.015483, 0.982041, 13.870111, -22.034878, 49.768589, -0.007438, -0.035004, 1.065285

149372956.178642, -0.002038, 0.001308, -0.003411, 0.029778, -0.015483, 0.982041, 13.858067, -22.005991, 49.770420, -0.007624, -0.034895, 1.064829

149372956.179665, -0.001121, 0.001002, -0.002495, 0.029778, 0.000000, 0.997629, 13.848432, -21.982882, 49.771885, -0.007481, -0.034784, 1.064681

149372956.180689, -0.003870, 0.004056, 0.000254, 0.029778, 0.000000, 0.997629, 13.840723, -21.964396, 49.773060, -0.007371, -0.034645, 1.064561

149372956.181713, 0.001017, 0.005278, 0.000865, 0.059555, -0.061933, 0.966453, 13.772947, -21.929197, 49.750671, -0.008495, -0.035122, 1.064356

149372956.182736, 0.008041, -0.002663, 0.004835, 0.059555, -0.061933, 0.966453, 13.718726, -21.901039, 49.732761, -0.009528, -0.035669, 1.064227

149372956.183757, -0.002954, 0.001002, 0.000865, 0.029778, 0.000000, 0.982041, 13.675349, -21.878513, 49.718433, -0.009367, -0.035552, 1.064219

149372956.184825, 0.009262, 0.001613, 0.001475, 0.029778, 0.000000, 0.982041, 13.640648, -21.860493, 49.706970, -0.009084, -0.035431, 1.064235

149372956.185846, 0.003764, -0.002357, 0.000253, 0.029778, -0.015483, 0.966453, 13.674497, -22.029749, 49.744450, -0.009185, -0.035361, 1.063991

149372956.186867, 0.006818, 0.000086, -0.000052, 0.029778, -0.015483, 0.966453, 13.701575, -22.165154, 49.774433, -0.009253, -0.035268, 1.063784

149372956.187888, 0.003457, 0.001308, 0.000864, 0.029778, -0.015483, 0.966453, 13.723238, -22.273478, 49.798420, -0.009353, -0.035165, 1.063619

