Recommendet Poll Interval: 4mS
Time, gyroX, gyroY, gyroZ, accelX, accelY, accelZ, magX, magY, magZ, phi, theta, psi
149330528.847190, -0.022404, -0.008280, 0.020818, 0.016000, -0.016000, -1.040000, -2.011202, -4.085063, -10.022933, -3.126209, -0.015382, -2.074490
149330528.848142, -0.024025, -0.014684, 0.017091, 0.016000, -0.016000, -1.024000, -3.539470, -7.393137, -18.066185, -3.126426, -0.015247, -2.074440
149330528.849182, -0.018436, -0.012880, 0.017030, 0.016000, -0.016000, -1.024000, -4.762084, -10.039596, -24.500788, -3.126602, -0.015120, -2.074333
149330528.850224, -0.018347, -0.011114, 0.019064, -0.000000, -0.016000, -1.040000, -5.740176, -12.156763, -29.648470, -3.126786, -0.014701, -2.073579
149330528.851249, -0.020951, -0.012076, 0.018962, -0.000000, -0.016000, -1.040000, -6.642607, -13.771005, -33.786732, -3.126987, -0.014283, -2.073006
149330528.852276, -0.024995, -0.010326, 0.016170, -0.000000, -0.016000, -1.040000, -7.364551, -15.062398, -37.097340, -3.127226, -0.013891, -2.072528
149330528.853292, -0.019685, -0.009212, 0.018222, -0.000000, -0.016000, -1.040000, -7.942106, -16.095512, -39.745827, -3.127403, -0.013518, -2.072153
149330528.854502, -0.017177, -0.009018, 0.015147, -0.000000, 0.000000, -1.024000, -8.324476, -16.941996, -41.843342, -3.127894, -0.013145, -2.071436
149330528.855471, -0.023693, -0.009725, 0.016024, -0.000000, 0.000000, -1.024000, -8.630373, -17.619183, -43.521355, -3.128396, -0.012794, -2.070682
149330528.856591, -0.018410, -0.009820, 0.016883, -0.000000, 0.000000, -1.024000, -8.875090, -18.160933, -44.863766, -3.128866, -0.012433, -2.069958
149330528.857455, -0.016826, -0.009015, 0.013239, -0.000000, 0.000000, -1.024000, -9.070864, -18.594332, -45.937695, -3.129267, -0.012113, -2.069162
149330528.858474, -0.021854, -0.009124, 0.013857, 0.016000, 0.000000, -1.040000, -9.207681, -19.000338, -46.774548, -3.129729, -0.012087, -2.068961
149330528.859489, -0.020796, -0.008334, 0.012967, 0.016000, 0.000000, -1.040000, -9.317134, -19.325142, -47.444031, -3.130171, -0.012071, -2.068714
149330528.860664, -0.016770, -0.007560, 0.012993, -0.000000, 0.000000, -1.040000, -9.423819, -19.466627, -48.047638, -3.130596, -0.011746, -2.067920
149330528.862395, -0.016118, -0.007999, 0.016308, -0.000000, 0.000000, -1.040000, -9.509167, -19.579815, -48.530525, -3.131091, -0.011377, -2.067293
149330528.863233, -0.018171, -0.004243, 0.013572, -0.000000, -0.032000, -1.024000, -9.577445, -19.670366, -48.916836, -3.130826, -0.011111, -2.067196
149330528.864059, -0.019283, -0.008938, 0.010297, -0.000000, -0.032000, -1.024000, -9.632068, -19.742807, -49.225883, -3.130573, -0.010814, -2.067090
149330528.864882, -0.018578, -0.008749, 0.012173, 0.016000, -0.016000, -1.040000, -9.677296, -19.879353, -49.381428, -3.130635, -0.010833, -2.067258
149330528.865795, -0.014300, -0.008266, 0.014010, 0.016000, -0.016000, -1.040000, -9.713478, -19.988588, -49.505863, -3.130674, -0.010849, -2.067433
149330528.866669, -0.016690, -0.008391, 0.010725, 0.016000, -0.016000, -1.040000, -9.742424, -20.075977, -49.605412, -3.130727, -0.010866, -2.067559
149330528.867733, -0.013947, -0.006720, 0.010798, -0.000000, -0.016000, -1.040000, -9.765580, -20.145889, -49.685051, -3.130784, -0.010576, -2.067072
149330528.869901, -0.012457, -0.007774, 0.009972, 0.016000, -0.016000, -1.040000, -9.782321, -20.182554, -49.840790, -3.130955, -0.010504, -2.067314
149330528.870810, -0.013391, -0.009404, 0.010660, 0.016000, -0.016000, -1.040000, -9.795713, -20.211885, -49.965382, -3.130979, -0.010517, -2.067435
149330528.871846, -0.014604, -0.008907, 0.011631, -0.016000, 0.000000, -1.056000, -9.807830, -20.234966, -49.995953, -3.131358, -0.009920, -2.066027
149330528.872906, -0.012204, -0.009019, 0.010788, -0.016000, 0.000000, -1.056000, -9.817523, -20.253431, -50.020409, -3.131706, -0.009331, -2.064643
149330528.873926, -0.017927, -0.004344, 0.009664, 0.016000, 0.000000, -1.024000, -9.825277, -20.268204, -50.039974, -3.132081, -0.009414, -2.064505
149330528.874931, -0.013961, -0.004552, 0.010059, 0.016000, 0.000000, -1.024000, -9.851197, -20.240511, -50.078026, -3.132408, -0.009493, -2.064404
149330528.875982, -0.010976, -0.002363, 0.012837, -0.000000, -0.016000, -1.024000, -9.871933, -20.218357, -50.108467, -3.132393, -0.009276, -2.064065
149330528.876990, -0.015828, -0.007396, 0.011670, -0.000000, -0.016000, -1.024000, -9.888522, -20.200634, -50.132820, -3.132422, -0.009015, -2.063736
149330528.878015, -0.012804, -0.003951, 0.011723, -0.000000, -0.016000, -1.056000, -9.901198, -20.324888, -50.153084, -3.132432, -0.008793, -2.063366
149330528.879201, -0.011039, -0.006858, 0.011775, -0.000000, -0.016000, -1.056000, -9.911340, -20.424292, -50.169292, -3.132441, -0.008534, -2.062990
149330528.880120, -0.013797, -0.004322, 0.008836, -0.000000, 0.000000, -1.024000, -9.919453, -20.503815, -50.182259, -3.132751, -0.008328, -2.062236
149330528.881272, -0.013507, -0.007520, 0.010444, -0.000000, 0.000000, -1.024000, -9.925943, -20.567432, -50.192635, -3.133083, -0.008079, -2.061517
149330528.882119, -0.012026, -0.007361, 0.010822, -0.000000, -0.032000, -1.040000, -9.891787, -20.460289, -50.200867, -3.132738, -0.007854, -2.061434
149330528.883159, -0.010876, -0.002123, 0.011791, -0.000000, -0.032000, -1.040000, -9.864461, -20.374575, -50.207451, -3.132410, -0.007672, -2.061398
149330528.884259, -0.009451, -0.002976, 0.009150, 0.016000, -0.016000, -1.056000, -9.842601, -20.306004, -50.212719, -3.132392, -0.007789, -2.061629
149330528.885207, -0.011046, -0.006202, 0.009257, 0.016000, -0.016000, -1.056000, -9.824560, -20.271049, -50.240078, -3.132376, -0.007878, -2.061843
149330528.886280, -0.012907, -0.005474, 0.011155, 0.016000, -0.016000, -1.040000, -9.810128, -20.243088, -50.261967, -3.132388, -0.007970, -2.062100
149330528.887284, -0.015027, -0.008049, 0.010322, 0.016000, -0.016000, -1.040000, -9.798582, -20.220718, -50.279476, -3.132412, -0.008039, -2.062337
149330528.888393, -0.014412, -0.003096, 0.007115, 0.016000, -0.016000, -1.024000, -9.869997, -20.281328, -50.246212, -3.132440, -0.008157, -2.062590
149330528.889365, -0.011417, -0.001835, 0.008460, 0.016000, -0.016000, -1.024000, -9.927129, -20.329815, -50.219601, -3.132419, -0.008288, -2.062865
149330528.890367, -0.011476, -0.005085, 0.007983, 0.016000, -0.016000, -1.024000, -9.972835, -20.368605, -50.198311, -3.132403, -0.008385, -2.063150
149330528.891448, -0.010636, -0.009463, 0.008114, 0.016000, -0.016000, -1.024000, -9.928577, -20.360683, -50.228775, -3.132387, -0.008429, -2.063406
149330528.892462, -0.010113, -0.007470, 0.006149, 0.016000, -0.016000, -1.024000, -9.893172, -20.354347, -50.253147, -3.132359, -0.008498, -2.063608
149330528.893471, -0.008704, -0.006715, 0.007514, -0.000000, -0.016000, -1.008000, -9.864848, -20.349277, -50.272644, -3.132314, -0.008260, -2.063174
149330528.894544, -0.009119, -0.006872, 0.006459, -0.000000, -0.016000, -1.008000, -9.842189, -20.345222, -50.288242, -3.132280, -0.008020, -2.062723
149330528.895592, -0.008203, -0.001985, 0.005238, 0.016000, 0.048000, -1.040000, -9.925321, -20.281965, -50.252258, -3.133468, -0.008173, -2.061780
149330528.896560, -0.008030, -0.002840, 0.006921, 0.016000, 0.048000, -1.040000, -9.991826, -20.231359, -50.223469, -3.134625, -0.008314, -2.060934
149330528.897675, -0.007725, -0.006811, 0.008143, -0.000000, 0.000000, -1.040000, -10.045031, -20.190874, -50.200439, -3.134851, -0.008074, -2.060452
149330528.898676, -0.009057, -0.005472, 0.009467, -0.000000, 0.000000, -1.040000, -10.026447, -20.198551, -50.229542, -3.135076, -0.007861, -2.059966
149330528.899667, -0.007670, -0.004161, 0.007473, -0.000000, -0.016000, -1.024000, -10.011581, -20.204693, -50.252823, -3.134969, -0.007661, -2.059777
149330528.900668, -0.013788, -0.004671, 0.007316, -0.000000, -0.016000, -1.024000, -9.999688, -20.209606, -50.271450, -3.134924, -0.007461, -2.059579
149330528.901742, -0.007518, -0.003078, 0.004471, -0.000000, -0.016000, -1.024000, -9.990258, -20.193760, -50.286240, -3.134825, -0.007278, -2.059360
149330528.902739, -0.004967, -0.003611, 0.004078, -0.000000, -0.016000, -1.024000, -9.982715, -20.181084, -50.298073, -3.134697, -0.007095, -2.059137
149330528.903797, -0.006956, -0.002937, 0.005786, -0.000000, -0.032000, -1.056000, -9.976680, -20.170942, -50.307537, -3.134301, -0.006923, -2.059261
149330528.906150, -0.006809, -0.002277, 0.004169, 0.016000, -0.016000, -1.040000, -9.953324, -20.142756, -50.246304, -3.134297, -0.007041, -2.059705
149330528.906985, -0.006367, -0.001631, 0.006473, 0.016000, -0.016000, -1.040000, -9.934640, -20.120207, -50.197319, -3.134188, -0.007195, -2.060091
149330528.907904, -0.006233, -0.006381, 0.006636, -0.000000, -0.016000, -1.040000, -9.919693, -20.102167, -50.158131, -3.134086, -0.006992, -2.059849
149330528.908931, -0.005803, -0.005050, 0.006197, -0.000000, -0.016000, -1.040000, -9.886447, -20.167183, -50.173710, -3.133987, -0.006800, -2.059559
149330528.909966, -0.006279, -0.000160, 0.006067, -0.000000, -0.016000, -1.024000, -9.859850, -20.219194, -50.186172, -3.133892, -0.006660, -2.059237
149330528.910986, -0.004950, -0.003147, 0.004444, -0.000000, -0.016000, -1.024000, -9.838573, -20.260805, -50.196140, -3.133784, -0.006494, -2.058869
149330528.912033, -0.005743, 0.000508, 0.003753, -0.000000, -0.032000, -1.040000, -9.881932, -20.214729, -50.202435, -3.133384, -0.006368, -2.058888
149330528.913048, -0.009509, -0.000101, 0.003674, -0.000000, -0.032000, -1.040000, -9.916620, -20.177870, -50.207470, -3.133027, -0.006240, -2.058950
149330528.914078, -0.008113, -0.002192, 0.007782, -0.000000, -0.016000, -1.040000, -9.944370, -20.148382, -50.211498, -3.132973, -0.006092, -2.058750
149330528.915097, -0.005251, -0.002445, 0.007319, -0.000000, -0.016000, -1.040000, -9.966444, -20.263098, -50.192467, -3.132891, -0.005944, -2.058519
149330528.916137, -0.002450, -0.002991, 0.005670, -0.000000, -0.032000, -1.040000, -9.984102, -20.354870, -50.177242, -3.132474, -0.005794, -2.058586
149330528.917181, -0.005089, -0.002330, 0.005252, -0.000000, -0.032000, -1.040000, -9.998229, -20.428288, -50.165062, -3.132094, -0.005654, -2.058627
149330528.918223, -0.007972, -0.004972, 0.004244, -0.000000, -0.032000, -1.040000, -10.009531, -20.487022, -50.155315, -3.131749, -0.005489, -2.058640
149330528.919246, -0.006010, -0.000981, 0.005650, -0.000000, -0.016000, -1.040000, -9.998260, -20.494671, -50.170742, -3.131700, -0.005368, -2.058325
149330528.920301, -0.008575, -0.000063, 0.005830, -0.000000, -0.016000, -1.040000, -9.989244, -20.500790, -50.183086, -3.131679, -0.005258, -2.058010
149330528.921327, -0.009590, -0.001856, 0.006006, -0.000000, -0.016000, -1.040000, -9.982031, -20.505684, -50.192959, -3.131667, -0.005133, -2.057694
149330528.922309, -0.003408, -0.000322, 0.006478, -0.000000, -0.016000, -1.040000, -9.998016, -20.430025, -50.130898, -3.131591, -0.005026, -2.057429
149330528.923366, 0.000551, -0.000913, 0.003651, -0.000000, -0.016000, -1.024000, -10.010804, -20.369497, -50.081245, -3.131474, -0.004915, -2.057185
149330528.924394, -0.004544, -0.006276, 0.004172, -0.000000, -0.016000, -1.024000, -10.021035, -20.321075, -50.041527, -3.131410, -0.004752, -2.056978
149330528.925408, -0.002654, -0.003751, 0.002589, -0.000000, -0.016000, -1.040000, -9.968412, -20.243299, -50.056835, -3.131333, -0.004619, -2.056744
149330528.926457, -0.004093, 0.000813, 0.006122, -0.000000, -0.016000, -1.040000, -9.926314, -20.181080, -50.069080, -3.131273, -0.004534, -2.056544
149330528.927462, -0.004605, -0.004587, 0.002704, -0.000000, -0.016000, -1.040000, -9.892635, -20.131304, -50.078876, -3.131217, -0.004397, -2.056304
149330528.928515, -0.006302, -0.003294, 0.003844, -0.000000, -0.016000, -1.040000, -9.863951, -20.170971, -50.156261, -3.131183, -0.004274, -2.056043
149330528.929554, 0.001006, 0.002157, 0.006454, -0.000000, -0.016000, -1.024000, -9.841003, -20.202705, -50.218170, -3.131069, -0.004209, -2.055786
149330528.930571, -0.002603, 0.000019, 0.006318, -0.000000, -0.016000, -1.024000, -9.822645, -20.228092, -50.267696, -3.130993, -0.004124, -2.055507
149330528.931597, -0.002249, -0.006261, 0.006783, -0.000000, -0.016000, -1.040000, -9.807959, -20.248402, -50.307320, -3.130921, -0.003977, -2.055212
149330528.932622, -0.005790, 0.000748, 0.005743, -0.000000, -0.016000, -1.040000, -9.836068, -20.304029, -50.338417, -3.130885, -0.003903, -2.054915
149330528.933682, -0.005668, -0.001061, 0.003828, -0.000000, -0.016000, -1.040000, -9.858556, -20.348532, -50.363293, -3.130851, -0.003813, -2.054605
149330528.934695, -0.004353, 0.000157, 0.003747, -0.000000, -0.016000, -1.040000, -9.876546, -20.384134, -50.383194, -3.130802, -0.003737, -2.054299
149330528.935703, -0.003436, -0.002897, 0.002220, 0.016000, -0.016000, -1.104000, -9.852736, -20.313524, -50.330276, -3.130763, -0.003923, -2.054561
149330528.936792, -0.003962, -0.003135, 0.003071, 0.016000, -0.016000, -1.104000, -9.833688, -20.257036, -50.287945, -3.130733, -0.004101, -2.054837
149330528.937797, -0.005373, -0.003069, 0.002109, 0.016000, -0.016000, -1.056000, -9.818449, -20.211845, -50.254078, -3.130702, -0.004292, -2.055144
149330528.938814, -0.004363, -0.004500, 0.000270, 0.016000, -0.016000, -1.056000, -9.806088, -20.215244, -50.227207, -3.130661, -0.004465, -2.055414
149330528.939857, -0.001879, -0.001415, 0.004152, -0.000000, -0.032000, -1.040000, -9.796200, -20.217964, -50.205711, -3.130284, -0.004361, -2.055431
149330528.940891, 0.001150, 0.001306, -0.000122, -0.000000, -0.032000, -1.040000, -9.788289, -20.220140, -50.188515, -3.129884, -0.004286, -2.055397
149330528.941900, -0.000967, -0.000815, 0.001077, 0.016000, -0.016000, -1.040000, -9.781960, -20.221880, -50.174759, -3.129821, -0.004501, -2.055662
149330528.942942, -0.006628, -0.004087, 0.001951, 0.016000, -0.016000, -1.040000, -9.795383, -20.361876, -50.210190, -3.129817, -0.004677, -2.055882
149330528.943984, -0.004096, 0.000484, 0.004302, 0.016000, -0.016000, -1.040000, -9.806122, -20.473871, -50.238537, -3.129788, -0.004895, -2.056083
149330528.945021, -0.007897, -0.001320, 0.000923, 0.016000, -0.016000, -1.040000, -9.814713, -20.563469, -50.261215, -3.129797, -0.005092, -2.056216
149330528.946045, -0.007897, -0.003458, 0.003672, -0.048000, -0.016000, -1.056000, -9.843213, -20.476595, -50.231983, -3.129869, -0.004044, -2.053851
149330528.947078, -0.001452, -0.002189, 0.002697, -0.000000, -0.016000, -1.056000, -9.866014, -20.407097, -50.208595, -3.129815, -0.003940, -2.053525
149330528.948114, -0.001720, -0.002442, 0.002939, -0.000000, -0.016000, -1.056000, -9.884254, -20.351498, -50.189888, -3.129766, -0.003835, -2.053247
149330528.949131, -0.002282, -0.005082, 0.003177, 0.016000, -0.032000, -1.040000, -9.857330, -20.327351, -50.244961, -3.129414, -0.004021, -2.053938
149330528.950147, -0.003430, -0.003181, 0.001914, 0.016000, -0.032000, -1.040000, -9.835792, -20.308033, -50.289017, -3.129080, -0.004222, -2.054595
149330528.951205, -0.002760, 0.001969, 0.000677, 0.016000, 0.000000, -1.056000, -9.818561, -20.292578, -50.324265, -3.129358, -0.004461, -2.054540
149330528.952226, -0.008084, -0.002258, 0.000065, 0.016000, 0.000000, -1.056000, -9.845951, -20.338987, -50.282867, -3.129683, -0.004653, -2.054481
149330528.953260, -0.004923, -0.001911, -0.002029, -0.000000, -0.016000, -1.056000, -9.867864, -20.376116, -50.249752, -3.129669, -0.004540, -2.054109
149330528.954278, -0.004222, 0.000521, -0.000791, -0.000000, -0.016000, -1.056000, -9.885394, -20.405817, -50.223259, -3.129647, -0.004454, -2.053761
149330528.955310, -0.005927, 0.000510, 0.001917, 0.032000, 0.000000, -1.040000, -9.899418, -20.429579, -50.202065, -3.129953, -0.004982, -2.054332
149330528.956325, 0.000178, -0.001893, 0.003671, 0.032000, 0.000000, -1.040000, -9.849533, -20.370125, -50.255001, -3.130191, -0.005475, -2.054898
149330528.957358, -0.002218, -0.001255, 0.000304, 0.016000, -0.016000, -1.024000, -9.809625, -20.322561, -50.297352, -3.130130, -0.005666, -2.055161
149330528.958375, -0.007254, 0.001163, -0.002692, 0.016000, -0.016000, -1.024000, -9.777699, -20.284510, -50.331230, -3.130121, -0.005877, -2.055381
149330528.959419, -0.007101, -0.003047, 0.001252, 0.016000, -0.048000, -1.056000, -9.813899, -20.292852, -50.265182, -3.129519, -0.006047, -2.056336
149330528.960441, -0.003364, -0.003282, 0.003019, 0.016000, -0.048000, -1.056000, -9.842859, -20.299526, -50.212345, -3.128889, -0.006211, -2.057309
149330528.961466, -0.004788, -0.002017, 0.002956, 0.016000, -0.016000, -1.056000, -9.866028, -20.304865, -50.170074, -3.128889, -0.006369, -2.057571
149330528.962513, -0.004687, -0.004665, 0.004987, 0.016000, -0.016000, -1.056000, -9.883076, -20.329296, -50.205475, -3.128889, -0.006496, -2.057853
149330528.963538, -0.002496, 0.000815, 0.003387, 0.016000, -0.016000, -1.024000, -9.896714, -20.348843, -50.233795, -3.128857, -0.006687, -2.058144
149330528.964582, -0.002443, -0.000996, 0.001820, 0.016000, -0.016000, -1.024000, -9.907624, -20.364479, -50.256451, -3.128825, -0.006855, -2.058417
149330528.965589, -0.002392, -0.003068, 0.001483, -0.000000, 0.000000, -1.040000, -9.897571, -20.416243, -50.206104, -3.129107, -0.006692, -2.057706
149330528.966649, -0.004135, -0.004798, 0.003545, -0.000000, 0.000000, -1.040000, -9.889528, -20.457653, -50.165829, -3.129401, -0.006513, -2.057009
149330528.967673, -0.001955, -0.002006, 0.005563, 0.016000, -0.016000, -1.056000, -9.883094, -20.490782, -50.133610, -3.129362, -0.006665, -2.057236
149330528.968702, -0.003409, -0.001964, 0.001858, 0.016000, -0.016000, -1.056000, -9.877947, -20.517284, -50.107834, -3.129339, -0.006814, -2.057407
149330528.969710, -0.002739, -0.002520, 0.001819, -0.000000, -0.016000, -1.040000, -9.915132, -20.458954, -50.039871, -3.129304, -0.006653, -2.057024
149330528.970768, -0.003579, -0.002766, 0.001482, -0.000000, -0.016000, -1.040000, -9.944880, -20.412289, -49.985504, -3.129281, -0.006490, -2.056688
149330528.972950, 0.001580, 0.000880, -0.000045, -0.000000, -0.032000, -1.040000, -9.906044, -20.435183, -50.058754, -3.128878, -0.006379, -2.056632
149330528.973835, -0.002341, -0.001530, 0.001451, -0.000000, 0.000000, -1.024000, -9.874975, -20.453499, -50.117352, -3.129155, -0.006242, -2.055923
149330528.974894, -0.000198, 0.000595, 0.001720, -0.000000, 0.000000, -1.024000, -9.850121, -20.468151, -50.164230, -3.129408, -0.006128, -2.055208
149330528.975957, -0.001689, 0.001778, 0.003179, -0.000000, -0.016000, -1.024000, -9.870137, -20.400724, -50.223499, -3.129357, -0.006023, -2.054878
149330528.976951, -0.007335, 0.001143, -0.001074, -0.000000, -0.016000, -1.024000, -9.886150, -20.346783, -50.270912, -3.129362, -0.005913, -2.054547
149330528.977980, 0.000594, -0.000974, 0.001041, -0.000000, -0.016000, -1.024000, -9.898961, -20.303631, -50.308842, -3.129289, -0.005784, -2.054271
149330528.979014, 0.000581, -0.001851, 0.001617, 0.016000, 0.000000, -1.040000, -9.931943, -20.288031, -50.200680, -3.129529, -0.005957, -2.054328
149330528.980094, -0.001524, -0.000915, 0.002181, 0.016000, 0.000000, -1.040000, -9.958328, -20.275551, -50.114151, -3.129786, -0.006135, -2.054415
149330528.981170, -0.005678, -0.000896, 0.000640, 0.016000, -0.016000, -1.024000, -9.979437, -20.265568, -50.044926, -3.129772, -0.006316, -2.054845
149330528.982080, -0.001372, -0.003867, 0.005112, 0.016000, -0.016000, -1.024000, -9.996324, -20.257580, -49.989548, -3.129710, -0.006468, -2.055321
149330528.983156, 0.001647, -0.000496, 0.002313, -0.016000, -0.016000, -1.040000, -10.007793, -20.291254, -50.037605, -3.129631, -0.006024, -2.054492
149330528.984383, -0.001079, 0.001308, -0.001323, -0.016000, -0.016000, -1.040000, -10.016970, -20.318193, -50.076050, -3.129585, -0.005611, -2.053635
149330528.985270, -0.000159, 0.003075, -0.001296, -0.000000, -0.016000, -1.040000, -10.024310, -20.339745, -50.106808, -3.129519, -0.005525, -2.053437
149330528.986197, -0.001053, -0.000578, -0.000371, -0.000000, -0.016000, -1.040000, -9.988922, -20.317989, -50.201118, -3.129463, -0.005409, -2.053231
149330528.987339, -0.000433, -0.002360, 0.001730, -0.000000, -0.016000, -1.056000, -9.960612, -20.300585, -50.276569, -3.129408, -0.005274, -2.053032
149330528.988415, -0.001321, -0.001114, 0.001693, -0.000000, -0.016000, -1.056000, -9.937964, -20.286661, -50.336929, -3.129364, -0.005156, -2.052823
149330528.989290, 0.004687, 0.001002, 0.004947, -0.000000, -0.016000, -1.040000, -9.861120, -20.295174, -50.317459, -3.129261, -0.005061, -2.052581
149330528.990335, -0.003186, 0.000682, 0.000955, -0.000000, -0.016000, -1.040000, -9.799645, -20.301983, -50.301884, -3.129233, -0.004966, -2.052259
149330528.991448, 0.001367, 0.000967, 0.000935, 0.016000, -0.016000, -1.024000, -9.750465, -20.307430, -50.289425, -3.129154, -0.005190, -2.052541
149330528.992400, 0.002534, -0.001147, -0.001177, 0.016000, -0.016000, -1.024000, -9.711122, -20.311789, -50.279457, -3.129068, -0.005388, -2.052764
149330528.993415, 0.004573, -0.000524, 0.000043, 0.016000, -0.016000, -1.040000, -9.740539, -20.334538, -50.224289, -3.128967, -0.005583, -2.052991
149330528.994483, 0.002085, -0.001111, 0.000939, 0.016000, -0.016000, -1.040000, -9.764072, -20.352737, -50.180153, -3.128891, -0.005768, -2.053233
149330528.995532, -0.002743, 0.001005, 0.000322, -0.000000, -0.016000, -1.024000, -9.782899, -20.367296, -50.144844, -3.128862, -0.005662, -2.052854
149330528.996504, -0.001788, 0.000386, 0.002707, -0.000000, -0.016000, -1.024000, -9.816275, -20.339817, -50.208099, -3.128822, -0.005552, -2.052545
149330528.997593, 0.003333, 0.000079, 0.001155, -0.000000, -0.016000, -1.040000, -9.842976, -20.317835, -50.258705, -3.128735, -0.005441, -2.052254
149330528.998584, -0.003316, 0.001871, 0.004121, -0.000000, -0.016000, -1.040000, -9.864336, -20.300249, -50.299191, -3.128717, -0.005349, -2.052022
149330528.999627, -0.003246, -0.002055, 0.000446, 0.016000, -0.016000, -1.056000, -9.862515, -20.246458, -50.285698, -3.128706, -0.005525, -2.052389
149330529.000640, 0.002504, 0.000380, 0.004323, 0.016000, -0.016000, -1.056000, -9.861058, -20.203424, -50.274902, -3.128638, -0.005721, -2.052804
149330529.001850, 0.005142, -0.001123, 0.002737, -0.000000, -0.016000, -1.040000, -9.859893, -20.168997, -50.266266, -3.128529, -0.005592, -2.052604
149330529.002981, 0.001446, 0.000695, 0.001185, -0.000000, -0.016000, -1.040000, -9.838861, -20.161318, -50.259884, -3.128467, -0.005488, -2.052374
149330529.003793, 0.001116, -0.001114, 0.001758, 0.016000, 0.000000, -1.024000, -9.822036, -20.155174, -50.254776, -3.128721, -0.005681, -2.052446
149330529.004794, 0.000196, 0.000105, -0.001568, 0.016000, 0.000000, -1.024000, -9.808576, -20.150259, -50.250690, -3.128977, -0.005881, -2.052479
149330529.005826, 0.001388, 0.001897, 0.000857, 0.016000, 0.000000, -1.024000, -9.797808, -20.146326, -50.247421, -3.129215, -0.006095, -2.052527
149330529.006810, -0.000137, -0.002927, 0.000241, 0.016000, 0.000000, -1.056000, -9.829052, -20.182562, -50.244205, -3.129464, -0.006247, -2.052560
149330529.007861, 0.004052, -0.001370, 0.000535, 0.016000, 0.000000, -1.056000, -9.854047, -20.211550, -50.241634, -3.129664, -0.006411, -2.052602
149330529.008909, -0.001714, -0.001042, 0.003813, -0.000000, -0.016000, -1.056000, -9.874043, -20.234741, -50.239574, -3.129618, -0.006271, -2.052392
149330529.009949, -0.001678, -0.006402, 0.001340, -0.000000, -0.016000, -1.056000, -9.830422, -20.154671, -50.238605, -3.129573, -0.006080, -2.052157
149330529.010925, -0.002241, -0.000886, -0.000183, -0.000000, -0.016000, -1.056000, -9.795526, -20.090614, -50.237831, -3.129532, -0.005949, -2.051910
149330529.011962, -0.005184, -0.001465, -0.000777, -0.000000, -0.016000, -1.056000, -9.767609, -20.039368, -50.237213, -3.129524, -0.005815, -2.051660
149330529.013043, -0.004775, -0.002630, 0.002528, 0.016000, -0.016000, -1.056000, -9.764949, -20.077391, -50.236752, -3.129514, -0.005974, -2.052051
149330529.014054, 0.003697, 0.002508, 0.003970, 0.016000, -0.016000, -1.056000, -9.762821, -20.107809, -50.236382, -3.129418, -0.006183, -2.052433
149330529.015071, 0.002722, 0.001259, 0.001494, -0.000000, -0.032000, -1.040000, -9.761119, -20.132143, -50.236088, -3.129019, -0.006072, -2.052492
149330529.016127, -0.000026, 0.003625, 0.002061, -0.000000, -0.032000, -1.040000, -9.818610, -20.210938, -50.281017, -3.128655, -0.005988, -2.052571
149330529.017133, 0.003563, 0.001755, 0.001719, -0.000000, -0.016000, -1.040000, -9.864603, -20.273973, -50.316963, -3.128572, -0.005885, -2.052320
149330529.018182, -0.001894, 0.000522, 0.000486, -0.000000, -0.016000, -1.040000, -9.901398, -20.324402, -50.345718, -3.128545, -0.005773, -2.052073
149330529.019192, -0.003948, -0.002479, 0.000775, 0.016000, -0.032000, -1.024000, -9.930834, -20.364744, -50.368721, -3.128224, -0.005952, -2.052830
149330529.020245, 0.000621, -0.002726, 0.001058, 0.016000, -0.032000, -1.024000, -9.915544, -20.337606, -50.341545, -3.127863, -0.006123, -2.053575
149330529.021244, -0.005971, -0.003267, -0.000160, -0.000000, -0.016000, -1.040000, -9.903312, -20.315895, -50.319805, -3.127889, -0.005968, -2.053300
149330529.022289, -0.002556, -0.002899, -0.000456, -0.000000, -0.016000, -1.040000, -9.893526, -20.298527, -50.302414, -3.127883, -0.005819, -2.053026
149330529.023298, 0.002282, 0.001049, 0.001348, 0.016000, -0.016000, -1.040000, -9.906731, -20.264513, -50.241905, -3.127829, -0.006021, -2.053423
149330529.024375, -0.001055, -0.000169, 0.001020, 0.016000, -0.016000, -1.040000, -9.917295, -20.237303, -50.193501, -3.127809, -0.006206, -2.053828
149330529.025365, -0.001332, -0.000464, -0.000795, -0.000000, 0.000000, -1.024000, -9.925746, -20.215534, -50.154774, -3.128099, -0.006081, -2.053288
149330529.026420, 0.000490, 0.001040, 0.001912, -0.000000, 0.000000, -1.024000, -9.992125, -20.296741, -50.123116, -3.128366, -0.005974, -2.052807
149330529.027437, 0.000181, -0.003766, -0.000221, -0.000000, -0.016000, -1.024000, -10.045227, -20.361708, -50.097790, -3.128316, -0.005817, -2.052646
149330529.028493, 0.001373, -0.000397, 0.000681, -0.000000, -0.016000, -1.024000, -10.087709, -20.413681, -50.077526, -3.128255, -0.005696, -2.052510
149330529.029482, -0.000154, 0.000214, 0.001597, 0.016000, -0.064000, -1.024000, -10.121696, -20.455259, -50.061317, -3.127284, -0.005935, -2.054151
149330529.030539, -0.004636, 0.001704, 0.000666, 0.016000, -0.064000, -1.024000, -10.087907, -20.489037, -50.095657, -3.126377, -0.006182, -2.055707
149330529.031588, 0.000545, 0.002565, 0.000652, 0.016000, -0.016000, -1.024000, -10.060876, -20.516058, -50.123131, -3.126365, -0.006397, -2.056068
149330529.032575, 0.001131, 0.000418, 0.000639, 0.016000, -0.016000, -1.024000, -10.039251, -20.537676, -50.145107, -3.126348, -0.006585, -2.056397
149330529.033609, -0.000089, -0.001086, -0.001767, 0.016000, -0.016000, -1.024000, -10.024076, -20.495129, -50.070217, -3.126343, -0.006755, -2.056700
149330529.034670, -0.001881, -0.000764, -0.000833, 0.016000, 0.000000, -1.024000, -10.011935, -20.461092, -50.010303, -3.126667, -0.006925, -2.056681
149330529.035684, 0.002345, 0.000149, -0.000217, 0.016000, 0.000000, -1.024000, -10.002223, -20.433863, -49.962372, -3.126942, -0.007100, -2.056673
149330529.036730, -0.003983, -0.001648, 0.000685, 0.016000, -0.016000, -1.056000, -9.954042, -20.392603, -49.947777, -3.126974, -0.007244, -2.056953
149330529.037736, 0.003276, -0.001314, 0.003062, 0.016000, -0.016000, -1.056000, -9.915498, -20.359594, -49.936100, -3.126932, -0.007389, -2.057234
149330529.038787, 0.000516, -0.001286, 0.002699, -0.000000, -0.016000, -1.024000, -9.884663, -20.333189, -49.926758, -3.126908, -0.007228, -2.056895
149330529.039845, -0.003680, -0.000960, 0.000848, -0.000000, -0.016000, -1.024000, -9.899088, -20.312147, -49.964527, -3.126929, -0.007073, -2.056565
149330529.040821, 0.000583, 0.002349, -0.000964, -0.000000, 0.000000, -1.040000, -9.910628, -20.295315, -49.994743, -3.127219, -0.006958, -2.055925
149330529.041838, -0.000625, 0.000804, -0.000346, -0.000000, 0.000000, -1.040000, -9.919861, -20.281849, -50.018917, -3.127515, -0.006832, -2.055316
149330529.042925, 0.001182, -0.001306, 0.002652, -0.000000, 0.000000, -1.024000, -9.927246, -20.271076, -50.038254, -3.127785, -0.006685, -2.054760
149330529.043934, -0.002431, 0.000516, 0.001101, -0.000000, 0.000000, -1.024000, -9.913225, -20.242767, -50.054024, -3.128087, -0.006560, -2.054199
149330529.044946, 0.004497, -0.000990, 0.002274, -0.000000, -0.016000, -1.040000, -9.902009, -20.220119, -50.066643, -3.128006, -0.006419, -2.053973
149330529.045990, 0.002908, -0.002165, 0.001927, -0.000000, -0.016000, -1.040000, -9.893036, -20.202002, -50.076736, -3.127941, -0.006268, -2.053748
149330529.047047, 0.002248, -0.001521, 0.000690, -0.000000, -0.016000, -1.040000, -9.926183, -20.226759, -50.061176, -3.127883, -0.006126, -2.053532
149330529.048029, -0.001985, -0.001190, -0.001118, -0.000000, -0.016000, -1.040000, -9.952701, -20.246565, -50.048725, -3.127870, -0.005993, -2.053316
149330529.049089, -0.002840, -0.003258, -0.001693, 0.016000, 0.000000, -1.040000, -9.973915, -20.262411, -50.038765, -3.128174, -0.006146, -2.053399
149330529.050123, -0.005770, -0.001695, -0.001657, 0.016000, 0.000000, -1.040000, -9.950093, -20.235962, -50.077469, -3.128501, -0.006313, -2.053474
149330529.051157, 0.000032, -0.000762, -0.000426, 0.016000, -0.016000, -1.040000, -9.931036, -20.214804, -50.108433, -3.128457, -0.006487, -2.053882
149330529.052226, 0.002722, -0.001344, -0.000118, 0.016000, -0.016000, -1.040000, -9.915791, -20.197876, -50.133202, -3.128385, -0.006651, -2.054281
149330529.053216, 0.000572, 0.000179, 0.003173, 0.032000, 0.000000, -1.008000, -9.923608, -20.184248, -50.152607, -3.128652, -0.007150, -2.055010
149330529.054225, 0.001158, 0.000773, 0.000415, 0.032000, 0.000000, -1.008000, -9.929862, -20.173346, -50.168129, -3.128908, -0.007645, -2.055708
149330529.055258, -0.004547, -0.000738, -0.000191, -0.000000, -0.016000, -1.024000, -9.934865, -20.164625, -50.180550, -3.128896, -0.007484, -2.055483
149330529.056285, -0.005648, 0.000773, -0.000785, -0.000000, -0.016000, -1.024000, -9.938868, -20.157648, -50.190483, -3.128895, -0.007342, -2.055263
149330529.057321, 0.001647, 0.001354, 0.000726, 0.016000, -0.016000, -1.024000, -10.021319, -20.230955, -50.220264, -3.128822, -0.007522, -2.055728
149330529.058344, -0.003769, 0.000728, -0.000186, 0.016000, -0.016000, -1.024000, -10.087281, -20.289600, -50.244087, -3.128804, -0.007692, -2.056202
149330529.059366, -0.002195, -0.000483, -0.000481, 0.016000, -0.016000, -1.056000, -10.140051, -20.336517, -50.263145, -3.128781, -0.007837, -2.056655
149330529.060414, 0.001140, -0.002865, 0.003416, 0.016000, -0.016000, -1.056000, -10.083300, -20.334673, -50.234161, -3.128724, -0.007954, -2.057095
149330529.061466, -0.000678, -0.000413, 0.000952, 0.016000, -0.016000, -1.056000, -10.037899, -20.333197, -50.210976, -3.128686, -0.008094, -2.057465
149330529.062503, -0.000066, -0.003992, -0.001460, -0.000000, -0.016000, -1.024000, -10.001578, -20.332016, -50.192429, -3.128634, -0.007891, -2.057176
149330529.063520, -0.004549, -0.003011, -0.000532, -0.000000, -0.016000, -1.024000, -9.992238, -20.291561, -50.199989, -3.128627, -0.007703, -2.056912
149330529.064548, -0.002360, -0.002649, -0.000222, -0.000000, 0.000000, -1.040000, -9.984766, -20.259197, -50.206036, -3.128912, -0.007526, -2.056345
149330529.065585, -0.001115, -0.001696, -0.002609, -0.000000, 0.000000, -1.040000, -9.978788, -20.233305, -50.210873, -3.129179, -0.007362, -2.055770
149330529.066600, -0.005277, -0.000763, -0.001358, 0.016000, 0.000000, -1.056000, -9.954757, -20.251974, -50.169308, -3.129480, -0.007510, -2.055789
149330529.067639, -0.000681, 0.001645, -0.001928, 0.016000, 0.000000, -1.056000, -9.935532, -20.266911, -50.136055, -3.129729, -0.007680, -2.055781
149330529.068659, -0.000966, 0.004600, -0.002186, 0.016000, -0.016000, -1.040000, -9.920152, -20.278858, -50.109455, -3.129670, -0.007881, -2.056090
149330529.069689, -0.000945, 0.000317, 0.001747, 0.016000, -0.016000, -1.040000, -9.907847, -20.288418, -50.088173, -3.129611, -0.008034, -2.056418
149330529.070707, 0.000569, -0.002081, 0.001112, 0.016000, 0.016000, -1.024000, -9.856319, -20.355947, -50.141411, -3.130156, -0.008170, -2.056041
149330529.071742, 0.001155, 0.001251, 0.002584, 0.016000, 0.016000, -1.024000, -9.815097, -20.409971, -50.184002, -3.130684, -0.008337, -2.055635
149330529.072777, -0.000663, -0.001765, 0.003725, 0.016000, -0.032000, -1.024000, -9.782119, -20.453192, -50.218075, -3.130286, -0.008470, -2.056188
149330529.073799, 0.001145, -0.003223, 0.002750, 0.016000, -0.032000, -1.024000, -9.796741, -20.368811, -50.220806, -3.129877, -0.008586, -2.056770
149330529.074837, 0.002018, -0.005248, -0.001195, -0.000000, -0.016000, -1.024000, -9.808439, -20.301306, -50.222992, -3.129780, -0.008360, -2.056353
149330529.075891, -0.000716, -0.000652, -0.000572, -0.000000, -0.016000, -1.024000, -9.817798, -20.247303, -50.224739, -3.129713, -0.008185, -2.055981
149330529.076907, 0.004682, 0.001454, 0.000038, -0.000000, 0.000000, -1.040000, -9.785087, -20.243824, -50.227184, -3.129907, -0.008040, -2.055282
149330529.077906, 0.001593, 0.001723, -0.002056, -0.000000, 0.000000, -1.040000, -9.758918, -20.241041, -50.229141, -3.130128, -0.007901, -2.054556
149330529.078984, -0.000833, 0.001985, 0.000679, 0.016000, -0.032000, -1.024000, -9.737983, -20.238815, -50.230705, -3.129743, -0.008082, -2.055163
149330529.079984, 0.002474, 0.000150, 0.003953, 0.016000, -0.032000, -1.024000, -9.721234, -20.237034, -50.231956, -3.129333, -0.008239, -2.055776
149330529.081019, 0.003917, -0.001349, -0.000615, 0.016000, -0.032000, -1.056000, -9.728062, -20.294724, -50.209846, -3.128935, -0.008368, -2.056269
149330529.082064, -0.001249, 0.001670, 0.002089, 0.016000, -0.032000, -1.056000, -9.733524, -20.340876, -50.192158, -3.128596, -0.008524, -2.056763
149330529.083079, -0.002717, -0.000757, -0.002739, 0.016000, -0.016000, -1.040000, -9.737894, -20.377798, -50.178009, -3.128576, -0.008654, -2.056861
149330529.084120, -0.005351, -0.001638, -0.001485, 0.016000, -0.016000, -1.040000, -9.741645, -20.348007, -50.166355, -3.128584, -0.008772, -2.056984
149330529.085131, -0.004341, 0.002582, 0.000340, -0.000000, -0.016000, -1.024000, -9.744645, -20.324175, -50.157032, -3.128577, -0.008622, -2.056518
149330529.086174, 0.001431, 0.003425, 0.000931, -0.000000, -0.016000, -1.024000, -9.747046, -20.305109, -50.149570, -3.128512, -0.008484, -2.056076
149330529.087217, 0.000504, 0.001260, 0.002107, 0.016000, -0.016000, -1.040000, -9.769915, -20.289515, -50.097122, -3.128461, -0.008634, -2.056298
149330529.088252, -0.001600, -0.001757, 0.001764, 0.016000, -0.016000, -1.040000, -9.788210, -20.277039, -50.055164, -3.128433, -0.008751, -2.056532
149330529.089244, -0.000669, 0.002167, -0.002160, 0.016000, -0.016000, -1.040000, -9.802846, -20.267057, -50.021599, -3.128396, -0.008905, -2.056737
149330529.090296, -0.003944, 0.001823, 0.000576, 0.016000, -0.016000, -1.040000, -9.874215, -20.239166, -50.016430, -3.128394, -0.009054, -2.057034
149330529.091333, 0.001820, -0.000907, 0.003853, 0.016000, -0.016000, -1.040000, -9.931311, -20.216852, -50.012295, -3.128332, -0.009171, -2.057412
149330529.092365, 0.000586, -0.003579, 0.003174, -0.000000, 0.000000, -1.024000, -9.976987, -20.199001, -50.008987, -3.128593, -0.008955, -2.056886
149330529.093406, -0.009892, 0.000384, 0.000715, -0.000000, 0.000000, -1.024000, -10.013528, -20.184721, -50.006340, -3.128957, -0.008783, -2.056380
149330529.094436, -0.000115, 0.001871, 0.000700, 0.032000, 0.000000, -1.024000, -9.981869, -20.154036, -50.051418, -3.129218, -0.009246, -2.057080
149330529.095455, -0.001010, 0.002130, 0.004871, 0.032000, 0.000000, -1.024000, -9.956541, -20.129486, -50.087479, -3.129482, -0.009703, -2.057799
149330529.096465, 0.006486, 0.002982, 0.002377, 0.016000, 0.000000, -1.040000, -9.936279, -20.109846, -50.116329, -3.129660, -0.009845, -2.057867
149330529.097509, 0.004257, 0.001724, 0.001430, 0.016000, 0.000000, -1.040000, -9.940296, -20.153250, -50.116299, -3.129855, -0.009973, -2.057911
149330529.098536, 0.000579, 0.001986, -0.000693, -0.000000, -0.032000, -1.040000, -9.943510, -20.187973, -50.116272, -3.129469, -0.009795, -2.057966
149330529.099589, -0.002124, -0.000448, 0.000517, -0.000000, -0.032000, -1.040000, -9.946081, -20.215752, -50.116253, -3.129118, -0.009595, -2.058022
149330529.100601, -0.005368, 0.003150, -0.001587, 0.016000, 0.000000, -1.024000, -9.948138, -20.237974, -50.116238, -3.129421, -0.009747, -2.058012
149330529.101655, 0.001024, 0.000991, -0.003048, 0.016000, 0.000000, -1.024000, -9.949783, -20.255753, -50.116226, -3.129653, -0.009875, -2.057982
149330529.102647, 0.001899, -0.002020, 0.000006, 0.016000, 0.000000, -1.040000, -9.951099, -20.269976, -50.116215, -3.129874, -0.009965, -2.057968
149330529.103698, 0.001859, 0.001311, 0.000006, 0.016000, 0.000000, -1.040000, -9.932988, -20.300959, -50.070660, -3.130088, -0.010087, -2.057929
149330529.104742, -0.003861, -0.002902, -0.000891, -0.000000, -0.016000, -1.040000, -9.918499, -20.325747, -50.034214, -3.130052, -0.009855, -2.057566
149330529.105754, -0.001089, -0.001645, 0.000921, -0.000000, -0.016000, -1.040000, -9.906908, -20.345575, -50.005058, -3.129988, -0.009641, -2.057210
149330529.106793, -0.001664, 0.002276, 0.000902, -0.000000, -0.016000, -1.040000, -9.897635, -20.361439, -49.981735, -3.129931, -0.009471, -2.056849
149330529.107810, -0.006114, 0.001032, -0.003004, -0.000000, -0.016000, -1.040000, -9.868290, -20.275974, -50.078102, -3.129919, -0.009291, -2.056466
149330529.108847, -0.006284, 0.000413, -0.000250, -0.000000, -0.016000, -1.040000, -9.844814, -20.207603, -50.155197, -3.129910, -0.009109, -2.056129
149330529.109869, -0.002265, 0.001600, -0.003234, -0.000000, -0.016000, -1.040000, -9.826034, -20.152906, -50.216873, -3.129861, -0.008943, -2.055776
149330529.110903, -0.000124, 0.002762, -0.002269, 0.016000, -0.016000, -1.040000, -9.830301, -20.168520, -50.289173, -3.129790, -0.009100, -2.056064
149330529.111924, -0.001915, -0.001482, -0.000428, 0.016000, -0.016000, -1.040000, -9.833715, -20.181009, -50.347012, -3.129739, -0.009211, -2.056362
149330529.112980, 0.002909, 0.000343, 0.000179, -0.000000, 0.000000, -1.040000, -9.836447, -20.191002, -50.393284, -3.129949, -0.009035, -2.055719
149330529.114012, -0.002235, -0.000262, -0.000721, -0.000000, 0.000000, -1.040000, -9.879510, -20.218344, -50.383518, -3.130207, -0.008855, -2.055102
149330529.115047, 0.001101, -0.000256, 0.001387, 0.016000, -0.016000, -1.024000, -9.913960, -20.240217, -50.375706, -3.130112, -0.008988, -2.055492
149330529.116057, 0.003171, 0.000646, 0.001059, 0.016000, -0.016000, -1.024000, -9.941521, -20.257715, -50.369453, -3.129999, -0.009128, -2.055884
149330529.117082, -0.003175, -0.001461, -0.001954, 0.016000, -0.016000, -1.024000, -9.903866, -20.192867, -50.365242, -3.129952, -0.009244, -2.056237
149330529.118137, -0.001314, 0.000065, 0.000180, -0.000000, -0.032000, -1.008000, -9.873742, -20.140989, -50.361874, -3.129563, -0.009061, -2.056322
149330529.119143, 0.002002, -0.000833, 0.000476, -0.000000, -0.032000, -1.008000, -9.849644, -20.099487, -50.359180, -3.129149, -0.008872, -2.056406
149330529.120190, -0.001329, -0.001115, 0.000167, -0.000000, -0.016000, -1.040000, -9.830364, -20.066286, -50.357025, -3.129105, -0.008683, -2.056122
149330529.121410, 0.002885, -0.001091, 0.000761, 0.016000, -0.032000, -1.040000, -9.854460, -20.158209, -50.355145, -3.128707, -0.008809, -2.056813
149330529.122571, 0.000432, 0.000427, -0.001049, 0.016000, -0.032000, -1.040000, -9.873736, -20.231749, -50.353642, -3.128347, -0.008952, -2.057451
149330529.123383, -0.000175, 0.000119, 0.000767, 0.016000, -0.032000, -1.040000, -9.889157, -20.290579, -50.352440, -3.128000, -0.009086, -2.058079
149330529.124319, -0.001965, 0.001013, -0.001641, -0.000000, -0.016000, -1.008000, -9.901027, -20.337772, -50.374512, -3.127975, -0.008914, -2.057701
149330529.125363, -0.001924, 0.000394, -0.001008, -0.000000, -0.016000, -1.008000, -9.910522, -20.375526, -50.392170, -3.127951, -0.008739, -2.057327
149330529.126358, -0.004574, 0.003077, -0.000987, 0.016000, -0.016000, -1.040000, -9.918119, -20.405729, -50.406296, -3.127962, -0.008902, -2.057566
149330529.127371, 0.004193, -0.000576, -0.001265, 0.016000, -0.016000, -1.040000, -9.906009, -20.330713, -50.348347, -3.127886, -0.009026, -2.057819
149330529.128456, -0.003370, -0.002657, -0.000940, 0.016000, -0.016000, -1.040000, -9.896320, -20.270700, -50.301987, -3.127889, -0.009126, -2.058087
149330529.129483, -0.004495, -0.000807, -0.000920, 0.016000, -0.016000, -1.040000, -9.888570, -20.222691, -50.264900, -3.127902, -0.009243, -2.058364
149330529.130477, -0.000215, -0.002584, 0.000295, 0.016000, -0.016000, -1.040000, -9.882369, -20.184282, -50.235229, -3.127871, -0.009341, -2.058659
149330529.131512, -0.000210, -0.002530, -0.000010, 0.016000, -0.016000, -1.040000, -9.896149, -20.232830, -50.257599, -3.127841, -0.009436, -2.058935
149330529.132563, 0.000990, -0.000682, 0.000289, 0.016000, 0.000000, -1.040000, -9.907172, -20.271669, -50.275494, -3.128105, -0.009548, -2.058873
149330529.133576, -0.002020, -0.001565, -0.000614, 0.016000, 0.000000, -1.040000, -9.915991, -20.302740, -50.289810, -3.128395, -0.009650, -2.058798
149330529.134621, 0.000115, 0.000860, -0.001199, 0.016000, 0.000000, -1.040000, -9.904052, -20.307652, -50.255493, -3.128657, -0.009774, -2.058707
149330529.135652, -0.001980, -0.001550, 0.000321, 0.016000, 0.000000, -1.040000, -9.894501, -20.311581, -50.228043, -3.128935, -0.009871, -2.058623
149330529.136661, 0.001051, -0.000322, 0.000315, 0.016000, -0.016000, -1.008000, -9.886860, -20.314724, -50.206081, -3.128861, -0.009988, -2.058890
149330529.137708, -0.003157, -0.003604, 0.003298, 0.016000, -0.016000, -1.008000, -9.919926, -20.297546, -50.233643, -3.128831, -0.010069, -2.059216
149330529.138738, 0.001993, -0.003528, 0.000837, -0.000000, -0.016000, -1.040000, -9.946378, -20.283804, -50.255692, -3.128761, -0.009831, -2.058886
149330529.139774, 0.001951, 0.003722, -0.002470, -0.000000, -0.016000, -1.040000, -9.967540, -20.272810, -50.273331, -3.128691, -0.009672, -2.058552
149330529.140803, 0.001611, 0.001551, -0.002119, -0.000000, 0.000000, -1.008000, -10.004951, -20.263802, -50.263996, -3.128936, -0.009499, -2.057946
149330529.141804, -0.002609, -0.002070, -0.001177, -0.000000, 0.000000, -1.008000, -10.034880, -20.256594, -50.256531, -3.129217, -0.009292, -2.057389
149330529.142838, 0.000735, 0.000964, 0.000043, 0.016000, 0.000000, -1.024000, -10.058823, -20.250828, -50.250557, -3.129458, -0.009428, -2.057491
149330529.143910, -0.000178, 0.004233, 0.000641, 0.016000, 0.000000, -1.024000, -10.077977, -20.246216, -50.245777, -3.129702, -0.009595, -2.057613
149330529.144937, 0.000738, -0.003098, -0.000887, -0.016000, -0.048000, -1.040000, -10.072734, -20.262514, -50.265511, -3.129013, -0.009062, -2.057435
149330529.145933, 0.001919, 0.000556, 0.002720, -0.016000, -0.048000, -1.040000, -10.068540, -20.275553, -50.281300, -3.128325, -0.008576, -2.057288
149330529.146987, -0.000513, -0.000353, 0.000869, -0.016000, -0.048000, -1.040000, -10.065185, -20.285984, -50.293930, -3.127675, -0.008090, -2.057118
149330529.148033, -0.000802, -0.000944, 0.001149, 0.016000, -0.016000, -1.040000, -10.002542, -20.274811, -50.305161, -3.127656, -0.008226, -2.057503
149330529.149056, 0.003102, -0.002120, 0.002620, 0.016000, -0.016000, -1.040000, -9.952429, -20.265873, -50.314144, -3.127596, -0.008348, -2.057860
149330529.150045, 0.000346, -0.002075, 0.000472, -0.000000, -0.016000, -1.040000, -9.912338, -20.258722, -50.321331, -3.127567, -0.008161, -2.057536
149330529.151096, -0.002950, 0.001556, 0.000462, -0.000000, -0.016000, -1.040000, -9.900493, -20.312117, -50.303967, -3.127571, -0.008013, -2.057188
149330529.152119, 0.000401, 0.003916, -0.002837, -0.000000, -0.016000, -1.056000, -9.891016, -20.354832, -50.290077, -3.127546, -0.007892, -2.056783
149330529.153140, 0.002485, 0.003534, -0.002179, -0.000000, -0.016000, -1.056000, -9.883434, -20.389004, -50.278965, -3.127501, -0.007770, -2.056373
149330529.154174, -0.000258, 0.001068, 0.000259, -0.000000, -0.016000, -1.040000, -9.796378, -20.416941, -50.317795, -3.127480, -0.007625, -2.055918
149330529.155201, 0.001242, 0.000746, 0.002048, -0.000000, -0.016000, -1.040000, -9.726733, -20.439291, -50.348858, -3.127444, -0.007480, -2.055424
149330529.156274, -0.005661, -0.001063, -0.000986, 0.016000, -0.016000, -1.040000, -9.671017, -20.457170, -50.373707, -3.127479, -0.007627, -2.055483
149330529.157284, 0.004923, -0.002536, 0.002025, 0.016000, -0.016000, -1.040000, -9.626444, -20.471474, -50.393585, -3.127405, -0.007756, -2.055530
149330529.158319, 0.000335, 0.000806, 0.001086, 0.016000, -0.016000, -1.040000, -9.692130, -20.403128, -50.360912, -3.127378, -0.007916, -2.055648
149330529.159317, 0.004813, 0.000490, 0.000166, 0.016000, -0.016000, -1.040000, -9.744679, -20.348450, -50.334774, -3.127308, -0.008070, -2.055818
149330529.160353, 0.004113, -0.000118, 0.000162, -0.000000, -0.016000, -1.024000, -9.786719, -20.304708, -50.313866, -3.127241, -0.007907, -2.055416
149330529.161389, 0.004326, -0.001311, -0.002233, -0.000000, -0.016000, -1.024000, -9.800337, -20.269800, -50.297550, -3.127173, -0.007736, -2.055022
149330529.162406, 0.000946, 0.002005, 0.001701, 0.016000, 0.000000, -1.024000, -9.811231, -20.241875, -50.284496, -3.127452, -0.007913, -2.055001
149330529.163494, 0.000926, -0.000130, 0.000768, 0.016000, 0.000000, -1.024000, -9.819946, -20.219534, -50.274055, -3.127725, -0.008066, -2.054986
149330529.164506, 0.000009, -0.002220, -0.000444, 0.032000, -0.016000, -1.056000, -9.905955, -20.221350, -50.310234, -3.127709, -0.008489, -2.055924
149330529.165534, 0.000308, 0.002012, 0.001658, 0.032000, -0.016000, -1.056000, -9.974763, -20.222803, -50.339176, -3.127691, -0.008946, -2.056916
149330529.166533, -0.002389, 0.002269, 0.001324, -0.000000, -0.016000, -1.040000, -10.029809, -20.223965, -50.362328, -3.127686, -0.008789, -2.056731
149330529.167603, -0.002339, 0.001623, -0.000498, -0.000000, -0.016000, -1.040000, -10.015290, -20.204992, -50.312874, -3.127681, -0.008630, -2.056527
149330529.168629, 0.000999, 0.000991, -0.000188, 0.016000, -0.016000, -1.040000, -10.003675, -20.189814, -50.273308, -3.127643, -0.008776, -2.056948
149330529.169660, 0.001277, 0.000671, -0.001081, 0.016000, -0.016000, -1.040000, -9.994382, -20.177671, -50.241657, -3.127603, -0.008915, -2.057349
149330529.170693, 0.000652, -0.001436, -0.000161, -0.000000, -0.016000, -1.040000, -9.986948, -20.167957, -50.216335, -3.127570, -0.008722, -2.057128
149330529.171699, -0.001753, -0.002004, 0.000739, -0.000000, -0.016000, -1.040000, -9.939655, -20.140966, -50.265896, -3.127561, -0.008528, -2.056892
149330529.172724, 0.001273, 0.003720, 0.001022, -0.000000, -0.016000, -1.056000, -9.901821, -20.119373, -50.305542, -3.127527, -0.008394, -2.056639
149330529.173781, 0.007227, 0.000352, 0.002496, -0.000000, -0.016000, -1.056000, -9.871554, -20.102098, -50.337261, -3.127431, -0.008230, -2.056388
149330529.174787, 0.000497, -0.001150, 0.000051, -0.000000, -0.016000, -1.056000, -9.947624, -20.147049, -50.337875, -3.127407, -0.008054, -2.056161
149330529.175819, -0.001308, -0.000528, 0.000050, 0.016000, -0.016000, -1.040000, -10.008480, -20.183010, -50.338364, -3.127398, -0.008195, -2.056599
149330529.176842, 0.004999, -0.001115, 0.002740, 0.016000, -0.016000, -1.040000, -10.057165, -20.211779, -50.338757, -3.127326, -0.008328, -2.057082
149330529.177901, 0.000707, -0.000792, -0.001503, 0.016000, 0.000000, -1.040000, -10.016778, -20.175680, -50.317352, -3.127604, -0.008460, -2.057164
149330529.178932, 0.000094, 0.001317, 0.000023, 0.016000, 0.000000, -1.040000, -9.984468, -20.146803, -50.300228, -3.127883, -0.008611, -2.057246
149330529.179958, 0.003382, 0.000094, 0.003013, 0.016000, -0.016000, -1.040000, -9.958621, -20.123701, -50.286530, -3.127817, -0.008747, -2.057679
149330529.180994, 0.001217, 0.002783, 0.000557, 0.016000, -0.016000, -1.040000, -9.937943, -20.105219, -50.275570, -3.127774, -0.008909, -2.058070
149330529.182004, 0.005378, -0.000266, -0.001248, 0.016000, -0.032000, -1.024000, -9.861656, -20.130116, -50.245228, -3.127374, -0.009046, -2.058738
149330529.183022, 0.005264, -0.002951, 0.002665, 0.016000, -0.032000, -1.024000, -9.800626, -20.150032, -50.220955, -3.126983, -0.009153, -2.059371
149330529.184049, -0.001125, -0.001693, -0.001876, -0.000000, -0.016000, -1.056000, -9.751801, -20.165966, -50.201534, -3.126986, -0.008953, -2.058895
149330529.185116, -0.006484, -0.003452, 0.001452, -0.000000, -0.016000, -1.056000, -9.851185, -20.237823, -50.252552, -3.127044, -0.008737, -2.058514
149330529.186409, 0.000231, -0.001884, 0.000525, 0.016000, 0.000000, -1.040000, -9.930692, -20.295309, -50.293365, -3.127332, -0.008846, -2.058473
149330529.187217, 0.002917, 0.001146, 0.001411, 0.016000, 0.000000, -1.040000, -9.994297, -20.341299, -50.326015, -3.127594, -0.008986, -2.058469
149330529.188200, -0.003722, -0.001270, 0.003175, -0.000000, 0.000000, -1.024000, -10.005407, -20.318933, -50.352627, -3.127912, -0.008798, -2.057895
149330529.189240, -0.003943, 0.000849, -0.003171, -0.000000, 0.000000, -1.024000, -10.014296, -20.301041, -50.373913, -3.128228, -0.008635, -2.057286
149330529.190235, -0.002365, 0.000532, -0.002506, 0.016000, -0.032000, -1.040000, -10.021406, -20.286726, -50.390942, -3.127906, -0.008782, -2.057996
149330529.191294, -0.002315, -0.000675, -0.000360, 0.016000, -0.032000, -1.040000, -9.988341, -20.196087, -50.358875, -3.127591, -0.008913, -2.058727
149330529.192577, 0.005508, -0.002754, 0.003833, 0.016000, 0.000000, -1.040000, -9.961889, -20.123575, -50.333221, -3.127802, -0.009006, -2.058818
149330529.193486, 0.003598, 0.001789, 0.001061, 0.016000, 0.000000, -1.040000, -9.940727, -20.065565, -50.312698, -3.128046, -0.009149, -2.058876
149330529.194359, 0.001728, 0.002350, 0.000441, -0.000000, -0.016000, -1.024000, -9.923798, -20.019157, -50.296280, -3.127990, -0.008986, -2.058647
149330529.195429, -0.001299, 0.001403, -0.001362, -0.000000, -0.016000, -1.024000, -9.909787, -19.982159, -50.306179, -3.127965, -0.008821, -2.058408
149330529.196456, 0.000523, 0.001673, -0.000137, -0.000000, -0.032000, -1.040000, -9.898579, -19.952560, -50.314098, -3.127616, -0.008663, -2.058529
149330529.197454, 0.000512, 0.001937, 0.001061, -0.000000, -0.032000, -1.040000, -9.889612, -19.928881, -50.320435, -3.127275, -0.008509, -2.058662
149330529.198503, 0.000202, -0.000795, 0.000142, 0.032000, -0.016000, -1.024000, -9.961518, -20.028379, -50.347561, -3.127259, -0.008956, -2.059711
149330529.199568, 0.005879, -0.001675, 0.001335, 0.032000, -0.016000, -1.024000, -10.019043, -20.107979, -50.369263, -3.127182, -0.009385, -2.060758
149330529.200585, 0.004260, -0.001640, 0.000410, -0.000000, -0.016000, -1.024000, -10.065063, -20.171658, -50.386623, -3.127117, -0.009181, -2.060543
149330529.201605, -0.003006, -0.000410, -0.002290, -0.000000, -0.016000, -1.024000, -10.082119, -20.163359, -50.400589, -3.127125, -0.008993, -2.060322
149330529.202643, 0.000659, -0.000104, -0.001373, -0.000000, 0.048000, -1.024000, -10.095764, -20.156719, -50.411758, -3.128350, -0.008853, -2.058949
149330529.203693, -0.000868, -0.001326, -0.000457, 0.016000, 0.000000, -1.024000, -10.106681, -20.151407, -50.420696, -3.128624, -0.008974, -2.059094
149330529.204683, 0.002440, -0.001298, 0.001646, 0.016000, 0.000000, -1.024000, -10.055584, -20.206617, -50.406384, -3.128860, -0.009094, -2.059193
149330529.205691, -0.001798, 0.002018, 0.002209, 0.016000, -0.016000, -1.056000, -10.014707, -20.250784, -50.394932, -3.128830, -0.009235, -2.059555
149330529.206762, -0.005946, -0.001313, -0.003519, 0.016000, -0.016000, -1.056000, -9.982004, -20.286118, -50.385773, -3.128846, -0.009340, -2.059809
149330529.207778, -0.001934, -0.003977, -0.001053, -0.000000, -0.032000, -1.056000, -9.955843, -20.314384, -50.378445, -3.128515, -0.009114, -2.059769
149330529.208782, -0.003388, -0.000604, -0.001030, -0.000000, -0.032000, -1.056000, -9.954545, -20.317265, -50.395092, -3.128204, -0.008925, -2.059729
149330529.209806, -0.001523, -0.000591, 0.001682, 0.016000, -0.016000, -1.024000, -9.953507, -20.319569, -50.408413, -3.128175, -0.009053, -2.060026
149330529.210861, 0.000602, 0.001514, 0.001348, 0.016000, -0.016000, -1.024000, -9.952677, -20.321411, -50.419067, -3.128126, -0.009200, -2.060313
149330529.211894, 0.005075, 0.002977, -0.000474, -0.000000, -0.016000, -1.040000, -9.953032, -20.302853, -50.381413, -3.128038, -0.009046, -2.059947
149330529.212927, -0.000414, 0.002317, 0.000433, -0.000000, -0.016000, -1.040000, -9.953316, -20.288006, -50.351288, -3.128007, -0.008889, -2.059604
149330529.213948, -0.002499, -0.000423, -0.000474, 0.032000, -0.016000, -1.040000, -9.953543, -20.276129, -50.327187, -3.128006, -0.009323, -2.060484
149330529.215009, 0.001441, -0.000414, 0.001330, 0.032000, -0.016000, -1.040000, -9.914801, -20.226992, -50.262436, -3.127964, -0.009747, -2.061356
149330529.216000, 0.004102, 0.001688, -0.001389, 0.016000, -0.016000, -1.040000, -9.883807, -20.187681, -50.210636, -3.127889, -0.009877, -2.061574
149330529.217079, 0.001623, 0.003446, 0.000136, 0.016000, -0.016000, -1.040000, -9.859013, -20.156233, -50.169197, -3.127839, -0.010023, -2.061796
149330529.218091, 0.000094, -0.002008, -0.000166, 0.016000, 0.000000, -1.024000, -9.839176, -20.131075, -50.136044, -3.128113, -0.010116, -2.061685
149330529.219107, -0.000506, -0.001966, 0.001033, 0.016000, 0.000000, -1.024000, -9.823307, -20.110949, -50.109524, -3.128387, -0.010207, -2.061583
149330529.220123, 0.000103, 0.000168, -0.001381, 0.016000, 0.000000, -1.040000, -9.810612, -20.094847, -50.088306, -3.128650, -0.010313, -2.061447
149330529.221182, -0.001095, -0.003423, -0.000155, 0.016000, 0.000000, -1.040000, -9.800456, -20.081964, -50.071331, -3.128919, -0.010380, -2.061322
149330529.222202, -0.004660, -0.002753, -0.000152, 0.016000, -0.016000, -1.040000, -9.831892, -20.071615, -50.079964, -3.128912, -0.010453, -2.061559
149330529.223240, -0.004562, -0.000901, -0.000149, 0.016000, -0.016000, -1.040000, -9.857041, -20.063337, -50.086868, -3.128906, -0.010542, -2.061816
149330529.224258, 0.002710, 0.000015, 0.002246, 0.016000, 0.000000, -1.024000, -9.877161, -20.056715, -50.092392, -3.129132, -0.010644, -2.061787
149330529.225287, -0.001234, -0.001780, -0.002884, 0.016000, 0.000000, -1.024000, -9.833214, -20.051674, -50.098049, -3.129394, -0.010727, -2.061676
149330529.226308, -0.000610, 0.001846, -0.004019, -0.000000, 0.000000, -1.008000, -9.798057, -20.047642, -50.102573, -3.129648, -0.010535, -2.060910
149330529.227347, -0.001195, 0.003601, -0.000646, -0.000000, 0.000000, -1.008000, -9.769931, -20.044415, -50.106194, -3.129903, -0.010366, -2.060170
149330529.228365, -0.002722, 0.000241, 0.000271, 0.016000, -0.016000, -1.056000, -9.806665, -20.120810, -50.131336, -3.129861, -0.010464, -2.060380
149330529.229415, 0.000325, -0.001259, -0.000034, 0.016000, -0.016000, -1.056000, -9.836053, -20.181925, -50.151447, -3.129790, -0.010545, -2.060579
149330529.230458, 0.001547, -0.002175, 0.000271, -0.048000, 0.000000, -1.008000, -9.859563, -20.230818, -50.167538, -3.130088, -0.009378, -2.057847
149330529.231476, 0.001215, 0.000263, 0.001163, -0.000000, 0.000000, -1.008000, -9.878371, -20.269932, -50.180408, -3.130309, -0.009196, -2.057186
149330529.232500, -0.001203, -0.001238, -0.000357, -0.000000, 0.000000, -1.008000, -9.913219, -20.241936, -50.212994, -3.130549, -0.009004, -2.056562
149330529.233516, 0.005102, -0.002707, -0.000349, -0.000000, -0.032000, -1.024000, -9.941098, -20.219538, -50.239063, -3.130094, -0.008798, -2.056643
149330529.234559, -0.000388, -0.002650, -0.002435, -0.000000, -0.032000, -1.024000, -9.963401, -20.201620, -50.259918, -3.129703, -0.008596, -2.056728
149330529.235592, -0.000379, 0.004283, 0.001204, 0.016000, -0.016000, -1.024000, -9.962078, -20.206892, -50.231056, -3.129634, -0.008780, -2.057134
149330529.236618, 0.000526, 0.001801, 0.000581, 0.016000, -0.016000, -1.024000, -9.961020, -20.211111, -50.207966, -3.129556, -0.008936, -2.057521
149330529.237647, 0.002906, 0.000866, 0.000270, 0.016000, -0.016000, -1.056000, -9.960175, -20.214485, -50.189495, -3.129466, -0.009069, -2.057866
149330529.238677, 0.004340, -0.002142, 0.001759, 0.016000, -0.016000, -1.056000, -9.979257, -20.276426, -50.174641, -3.129362, -0.009169, -2.058207
149330529.239733, 0.004548, -0.000004, 0.000227, 0.016000, -0.016000, -1.040000, -9.994522, -20.325979, -50.162758, -3.129253, -0.009294, -2.058530
149330529.240743, -0.001827, -0.002097, 0.000222, 0.016000, -0.016000, -1.040000, -10.006735, -20.365622, -50.153252, -3.129211, -0.009395, -2.058839
149330529.241761, 0.000903, -0.005043, 0.000217, 0.016000, 0.000000, -1.024000, -9.995599, -20.496431, -50.169651, -3.129449, -0.009470, -2.058763
149330529.242804, -0.002106, -0.000452, -0.002478, 0.016000, 0.000000, -1.024000, -9.986691, -20.601078, -50.182770, -3.129713, -0.009589, -2.058613
149330529.243822, -0.001763, 0.001053, -0.000034, 0.016000, -0.016000, -1.040000, -9.979564, -20.684795, -50.193264, -3.129661, -0.009715, -2.058761
149330529.244850, -0.005015, -0.000464, 0.000565, 0.016000, -0.016000, -1.040000, -9.973862, -20.751770, -50.201660, -3.129643, -0.009824, -2.058880
149330529.245929, -0.000723, -0.000156, 0.000553, 0.016000, -0.016000, -1.040000, -9.970617, -20.607460, -50.184227, -3.129583, -0.009933, -2.059055
149330529.246915, -0.003399, 0.000446, -0.000655, 0.016000, -0.016000, -1.040000, -9.968021, -20.492012, -50.170280, -3.129549, -0.010047, -2.059260
149330529.247951, -0.003029, 0.000137, -0.000641, 0.016000, -0.016000, -1.040000, -9.965944, -20.399654, -50.159122, -3.129514, -0.010156, -2.059500
149330529.248994, -0.000274, 0.000433, -0.002421, 0.016000, -0.016000, -1.040000, -9.983108, -20.385265, -50.196186, -3.129451, -0.010265, -2.059736
149330529.250050, -0.002062, 0.001620, -0.002371, -0.000000, -0.032000, -1.024000, -9.996839, -20.373755, -50.225838, -3.129091, -0.010077, -2.059711
149330529.251069, -0.004411, -0.001404, 0.000968, -0.000000, -0.032000, -1.024000, -10.007823, -20.364546, -50.249561, -3.128760, -0.009861, -2.059734
149330529.252097, -0.001029, -0.000477, 0.000350, 0.032000, -0.032000, -1.024000, -10.036710, -20.337317, -50.268017, -3.128416, -0.010296, -2.061048
149330529.253101, 0.002581, 0.000131, -0.000255, 0.032000, -0.032000, -1.024000, -10.059819, -20.315535, -50.282780, -3.128043, -0.010727, -2.062358
149330529.254163, 0.000434, -0.000470, 0.000348, -0.000000, -0.032000, -1.040000, -10.078307, -20.298109, -50.294590, -3.127695, -0.010508, -2.062400
149330529.255194, 0.003115, 0.001633, 0.000640, -0.000000, -0.032000, -1.040000, -9.972545, -20.284811, -50.329548, -3.127326, -0.010314, -2.062362
149330529.256204, -0.001136, -0.001691, 0.000028, -0.000000, 0.000000, -1.024000, -9.887935, -20.274172, -50.357513, -3.127626, -0.010096, -2.061605
149330529.257218, 0.004270, -0.004645, 0.000028, -0.000000, 0.000000, -1.024000, -9.820247, -20.265661, -50.379887, -3.127867, -0.009853, -2.060812
149330529.258289, 0.002087, -0.003650, 0.000625, 0.016000, -0.016000, -1.024000, -9.766097, -20.258852, -50.397785, -3.127808, -0.009930, -2.060954
149330529.259322, -0.004236, -0.002377, -0.002079, 0.016000, -0.016000, -1.024000, -9.744321, -20.331911, -50.319996, -3.127814, -0.010020, -2.061017
149330529.260324, -0.001755, 0.001859, -0.001138, 0.016000, -0.016000, -1.024000, -9.726900, -20.390360, -50.257767, -3.127795, -0.010151, -2.061049
149330529.261333, -0.001718, 0.003315, 0.000381, -0.000000, -0.032000, -1.024000, -9.712963, -20.437119, -50.207981, -3.127465, -0.009978, -2.060762
149330529.262378, 0.000411, 0.003843, 0.002765, -0.000000, -0.032000, -1.024000, -9.801120, -20.434799, -50.211941, -3.127119, -0.009816, -2.060580
149330529.263438, -0.001092, 0.001968, 0.000314, -0.000000, -0.016000, -1.024000, -9.871645, -20.432943, -50.215107, -3.127110, -0.009640, -2.060101
149330529.264442, -0.000770, 0.003123, -0.000290, -0.000000, -0.016000, -1.024000, -9.928065, -20.431459, -50.217640, -3.127096, -0.009477, -2.059671
149330529.265469, -0.001651, 0.001263, -0.000284, -0.000000, -0.016000, -1.040000, -9.974646, -20.311359, -50.172928, -3.127097, -0.009301, -2.059333
149330529.266526, -0.002214, -0.001455, -0.002371, -0.000000, -0.016000, -1.040000, -10.011909, -20.215279, -50.137157, -3.127104, -0.009100, -2.059048
149330529.267540, -0.001869, -0.000826, 0.000071, -0.000000, -0.016000, -1.024000, -10.041720, -20.138414, -50.108540, -3.127100, -0.008909, -2.058856
149330529.268582, -0.000334, 0.000686, -0.000828, -0.000000, -0.016000, -1.024000, -10.065570, -20.076923, -50.085648, -3.127082, -0.008738, -2.058705
149330529.269590, -0.006606, -0.001720, 0.000685, -0.000000, -0.016000, -1.040000, -10.043687, -20.245440, -50.069386, -3.127131, -0.008546, -2.058477
149330529.270635, -0.001982, -0.002581, 0.000670, -0.000000, -0.016000, -1.040000, -10.026180, -20.380253, -50.056377, -3.127134, -0.008349, -2.058184
149330529.271675, -0.001343, -0.001630, -0.001138, -0.000000, -0.016000, -1.040000, -10.012175, -20.488104, -50.045971, -3.127130, -0.008165, -2.057822
149330529.272695, 0.000779, -0.002492, 0.003670, -0.000000, -0.016000, -1.040000, -10.000673, -20.534960, -50.060459, -3.127105, -0.007976, -2.057488
149330529.273738, -0.002228, -0.000347, 0.000304, -0.000000, -0.032000, -1.040000, -9.991472, -20.572445, -50.072048, -3.126803, -0.007813, -2.057431
149330529.274761, -0.002779, 0.001454, 0.000896, -0.000000, -0.032000, -1.040000, -9.984111, -20.602434, -50.081318, -3.126512, -0.007671, -2.057362
149330529.275797, -0.004215, 0.000228, 0.000578, -0.016000, -0.016000, -1.040000, -9.938235, -20.508066, -50.111923, -3.126560, -0.007212, -2.056329
149330529.276811, -0.002632, -0.000973, 0.001462, -0.016000, -0.016000, -1.040000, -9.901535, -20.432573, -50.136410, -3.126591, -0.006750, -2.055325
149330529.277876, -0.000483, -0.000654, 0.001432, 0.016000, -0.048000, -1.056000, -9.872175, -20.372179, -50.155998, -3.125991, -0.006925, -2.056290
149330529.278886, 0.001022, 0.000556, -0.000093, 0.016000, -0.048000, -1.056000, -9.849070, -20.343512, -50.148746, -3.125389, -0.007108, -2.057215
149330529.279919, 0.002196, 0.003236, -0.000988, -0.000000, -0.016000, -1.024000, -9.830585, -20.320578, -50.142944, -3.125380, -0.006999, -2.056802
149330529.280910, -0.000541, 0.004662, -0.000071, -0.000000, -0.016000, -1.024000, -9.815798, -20.302231, -50.138302, -3.125398, -0.006904, -2.056402
149330529.281952, 0.001863, 0.001873, 0.001426, 0.016000, -0.016000, -1.040000, -9.803967, -20.287554, -50.134586, -3.125396, -0.007093, -2.056640
149330529.282979, 0.001225, 0.000040, -0.000398, 0.016000, -0.016000, -1.040000, -9.854843, -20.314978, -50.107567, -3.125401, -0.007259, -2.056883
149330529.284007, 0.002396, -0.000260, 0.000507, 0.016000, -0.016000, -1.040000, -9.895544, -20.336916, -50.085949, -3.125394, -0.007419, -2.057151
149330529.285057, 0.002644, -0.000255, -0.000400, 0.016000, -0.016000, -1.040000, -9.928104, -20.354467, -50.068657, -3.125384, -0.007575, -2.057424
149330529.286091, 0.003486, -0.000249, -0.001289, -0.000000, -0.016000, -1.024000, -9.953940, -20.309307, -50.077522, -3.125362, -0.007421, -2.057107
149330529.287129, 0.001618, 0.002148, -0.000963, -0.000000, -0.016000, -1.024000, -9.974609, -20.273180, -50.084618, -3.125358, -0.007295, -2.056833
149330529.288139, 0.001584, 0.002701, 0.000552, -0.000000, -0.016000, -1.024000, -9.991144, -20.244278, -50.090294, -3.125356, -0.007176, -2.056605
149330529.289207, -0.001439, 0.002046, 0.000541, 0.016000, -0.016000, -1.040000, -10.005010, -20.181477, -50.071575, -3.125390, -0.007361, -2.057034
149330529.290234, -0.001708, -0.000090, 0.000230, 0.016000, -0.016000, -1.040000, -10.016102, -20.131235, -50.056599, -3.125425, -0.007521, -2.057481
149330529.291259, 0.002514, -0.003975, -0.002167, -0.000000, -0.016000, -1.024000, -10.024976, -20.091042, -50.044617, -3.125411, -0.007331, -2.057303
149330529.292248, -0.000529, -0.000005, -0.000626, -0.000000, -0.016000, -1.024000, -10.011636, -20.157854, -50.036003, -3.125428, -0.007184, -2.057106
149330529.293305, -0.003508, 0.000594, 0.001480, 0.016000, -0.016000, -1.024000, -10.000964, -20.211304, -50.029114, -3.125477, -0.007359, -2.057533
149330529.294808, 0.000453, 0.002674, 0.000552, 0.016000, -0.016000, -1.040000, -9.992427, -20.254065, -50.023602, -3.125486, -0.007558, -2.057903
149330529.295649, -0.003145, 0.000824, -0.003048, 0.016000, -0.016000, -1.040000, -9.924789, -20.249233, -50.066273, -3.125528, -0.007722, -2.058182
149330529.296464, -0.000686, 0.000806, 0.001203, 0.016000, -0.016000, -1.040000, -9.870680, -20.245369, -50.100410, -3.125548, -0.007881, -2.058449
149330529.297716, -0.000672, 0.000789, -0.000617, 0.016000, -0.016000, -1.056000, -9.827392, -20.242277, -50.127720, -3.125575, -0.008036, -2.058647
149330529.298641, -0.000060, -0.001320, 0.002386, 0.016000, -0.016000, -1.056000, -9.792762, -20.239803, -50.149570, -3.125593, -0.008166, -2.058845
149330529.299499, -0.000365, -0.001931, -0.000057, 0.016000, -0.032000, -1.008000, -9.826119, -20.217535, -50.119633, -3.125284, -0.008308, -2.059458
149330529.300544, 0.001138, -0.002189, -0.000355, 0.016000, -0.032000, -1.008000, -9.852805, -20.199720, -50.095680, -3.124966, -0.008442, -2.060084
149330529.301533, -0.000381, 0.003538, -0.000646, -0.000000, -0.016000, -1.040000, -9.874154, -20.185469, -50.076519, -3.124996, -0.008308, -2.059704
149330529.302585, 0.000225, 0.002267, -0.001530, -0.000000, -0.016000, -1.040000, -9.888940, -20.273460, -50.153885, -3.125020, -0.008165, -2.059297
149330529.303623, -0.003069, -0.001369, -0.002096, -0.000000, -0.016000, -1.040000, -9.900768, -20.343853, -50.215778, -3.125077, -0.007989, -2.058873
149330529.304643, -0.001809, 0.001052, 0.001237, -0.000000, -0.016000, -1.040000, -9.910231, -20.400167, -50.265293, -3.125119, -0.007840, -2.058477
149330529.305680, 0.001220, -0.000166, 0.003603, -0.000000, -0.016000, -1.040000, -9.899061, -20.365944, -50.258804, -3.125130, -0.007681, -2.058117
149330529.306697, -0.002394, 0.000436, -0.001256, -0.000000, -0.016000, -1.040000, -9.890125, -20.338566, -50.253613, -3.125177, -0.007532, -2.057720
149330529.307716, -0.002643, -0.000770, -0.003024, -0.000000, -0.032000, -1.024000, -9.882977, -20.316664, -50.249458, -3.124907, -0.007374, -2.057660
149330529.308766, -0.001690, 0.004031, -0.001764, -0.000000, -0.032000, -1.024000, -9.877257, -20.299141, -50.246136, -3.124634, -0.007268, -2.057616
149330529.309768, 0.001037, 0.002451, -0.000830, 0.016000, -0.016000, -1.024000, -9.872937, -20.225794, -50.243141, -3.124652, -0.007459, -2.057905
149330529.310818, 0.000118, -0.000591, 0.000383, 0.016000, -0.016000, -1.024000, -9.869481, -20.167116, -50.240746, -3.124678, -0.007616, -2.058223
149330529.311848, 0.001311, 0.000319, 0.002468, 0.016000, -0.032000, -1.056000, -9.866716, -20.120174, -50.238831, -3.124399, -0.007773, -2.058892
149330529.312875, 0.001882, -0.000884, 0.001818, 0.016000, -0.032000, -1.056000, -9.924122, -20.181244, -50.236618, -3.124121, -0.007916, -2.059558
149330529.313884, 0.000646, 0.001228, -0.000911, 0.016000, 0.000000, -1.040000, -9.970047, -20.230101, -50.234848, -3.124463, -0.008077, -2.059538
149330529.314934, -0.003255, -0.000293, -0.002088, 0.016000, 0.000000, -1.040000, -10.006786, -20.269186, -50.233433, -3.124840, -0.008221, -2.059517
149330529.315973, -0.000196, -0.000586, -0.000549, 0.016000, 0.000000, -1.040000, -9.996617, -20.300499, -50.210091, -3.125176, -0.008358, -2.059492
149330529.316997, -0.001986, -0.000574, -0.000537, -0.000000, -0.016000, -1.024000, -9.988482, -20.325548, -50.191418, -3.125214, -0.008186, -2.059164
149330529.318047, -0.001346, 0.000335, -0.002918, -0.000000, -0.016000, -1.024000, -9.981973, -20.345589, -50.176479, -3.125244, -0.008026, -2.058805
149330529.319059, 0.002270, 0.001524, 0.000133, 0.016000, -0.016000, -1.024000, -9.976766, -20.361620, -50.164528, -3.125237, -0.008193, -2.059101
149330529.320087, 0.000727, 0.001193, 0.001626, 0.016000, -0.016000, -1.024000, -9.932020, -20.394520, -50.178940, -3.125245, -0.008353, -2.059358
149330529.321102, 0.000712, 0.001766, -0.000801, -0.000000, 0.000000, -1.024000, -9.896223, -20.420841, -50.190468, -3.125568, -0.008210, -2.058603
149330529.322171, 0.003687, 0.005018, 0.000412, -0.000000, 0.000000, -1.024000, -9.867586, -20.441898, -50.199692, -3.125853, -0.008104, -2.057845
149330529.323170, 0.006899, 0.001025, 0.001301, -0.000000, -0.016000, -1.056000, -9.865328, -20.418978, -50.183399, -3.125799, -0.007952, -2.057420
149330529.324227, 0.002866, 0.000406, -0.000222, -0.000000, -0.016000, -1.056000, -9.863522, -20.400640, -50.170364, -3.125784, -0.007797, -2.056994
149330529.325273, 0.006394, 0.001294, -0.002908, -0.000000, -0.032000, -1.040000, -9.862076, -20.385971, -50.159939, -3.125420, -0.007654, -2.056890
149330529.326277, 0.000877, 0.000968, -0.001053, -0.000000, -0.032000, -1.040000, -9.919560, -20.374361, -50.219463, -3.125120, -0.007511, -2.056860
149330529.327328, -0.004224, -0.001445, -0.002526, 0.016000, 0.000000, -1.040000, -9.965548, -20.365074, -50.267082, -3.125493, -0.007654, -2.056818
149330529.328363, 0.001247, -0.001414, 0.000218, 0.016000, 0.000000, -1.040000, -10.002337, -20.357643, -50.305180, -3.125802, -0.007794, -2.056837
149330529.329355, -0.001172, 0.002204, 0.000214, -0.000000, -0.016000, -1.024000, -9.953921, -20.272427, -50.244720, -3.125817, -0.007660, -2.056565
149330529.330402, 0.004833, 0.002456, 0.001405, -0.000000, -0.016000, -1.024000, -9.915189, -20.204252, -50.196354, -3.125772, -0.007532, -2.056307
149330529.331449, 0.002040, -0.000286, 0.004067, 0.016000, -0.016000, -1.040000, -9.884203, -20.149714, -50.157658, -3.125761, -0.007685, -2.056697
149330529.332473, 0.001997, 0.002710, 0.000991, 0.016000, -0.016000, -1.040000, -9.859414, -20.106083, -50.126701, -3.125751, -0.007866, -2.057047
149330529.333512, 0.008832, -0.001832, 0.002166, 0.016000, 0.000000, -1.056000, -9.858875, -20.130548, -50.124897, -3.125977, -0.007993, -2.057052
149330529.334518, 0.003264, -0.001495, 0.001224, 0.016000, 0.000000, -1.056000, -9.858444, -20.150122, -50.123451, -3.126257, -0.008121, -2.057038
149330529.335880, -0.000691, -0.003257, -0.001493, -0.000000, 0.000000, -1.040000, -9.858099, -20.165779, -50.122295, -3.126576, -0.007920, -2.056385
149330529.336738, 0.002612, -0.000797, 0.003322, -0.000000, 0.000000, -1.040000, -9.917229, -20.217728, -50.143391, -3.126856, -0.007759, -2.055821
149330529.337607, 0.001959, -0.000481, 0.003551, 0.016000, 0.000000, -1.040000, -9.964532, -20.259287, -50.160267, -3.127134, -0.007907, -2.055897
149330529.338627, 0.000722, -0.002265, -0.002204, 0.016000, 0.000000, -1.040000, -10.002375, -20.292534, -50.173767, -3.127416, -0.008033, -2.055935
149330529.339714, 0.002800, -0.003413, 0.000234, 0.016000, -0.016000, -1.040000, -10.032054, -20.240284, -50.230190, -3.127363, -0.008144, -2.056371
149330529.340706, 0.000050, 0.000247, 0.001724, 0.016000, -0.016000, -1.040000, -10.055798, -20.198483, -50.275330, -3.127342, -0.008291, -2.056851
149330529.341734, -0.001446, -0.000955, -0.001302, -0.000000, -0.016000, -1.024000, -10.074792, -20.165043, -50.311443, -3.127329, -0.008116, -2.056706
149330529.342795, 0.003069, -0.000934, -0.002770, -0.000000, -0.016000, -1.024000, -10.070483, -20.237001, -50.295235, -3.127271, -0.007944, -2.056515
149330529.343806, -0.001181, -0.000018, 0.000877, -0.000000, -0.016000, -1.024000, -10.067037, -20.294567, -50.282269, -3.127257, -0.007785, -2.056338
149330529.344819, -0.001156, -0.001811, -0.000637, -0.000000, -0.016000, -1.024000, -10.064280, -20.340620, -50.271893, -3.127244, -0.007611, -2.056128
149330529.345872, 0.001858, -0.002072, 0.001469, -0.000000, -0.016000, -1.024000, -10.062074, -20.377462, -50.263592, -3.127200, -0.007437, -2.055926
149330529.346905, 0.000922, 0.004250, -0.000654, 0.016000, -0.016000, -1.024000, -10.020366, -20.387333, -50.257664, -3.127167, -0.007644, -2.056297
149330529.347926, -0.002686, -0.002118, 0.001153, 0.016000, -0.016000, -1.024000, -9.987000, -20.395229, -50.252922, -3.127172, -0.007783, -2.056648
149330529.348938, 0.001258, -0.000878, 0.000830, -0.000000, -0.016000, -1.024000, -9.960306, -20.401546, -50.249130, -3.127136, -0.007618, -2.056337
149330529.349993, -0.000862, 0.001832, -0.001878, -0.000000, -0.016000, -1.024000, -9.938824, -20.327623, -50.268684, -3.127123, -0.007485, -2.056018
149330529.351006, 0.001848, 0.002989, -0.000643, 0.016000, -0.016000, -1.024000, -9.921638, -20.268484, -50.284328, -3.127083, -0.007677, -2.056361
149330529.352127, 0.005207, -0.003119, -0.000643, 0.016000, -0.016000, -1.024000, -9.907889, -20.221172, -50.296841, -3.127005, -0.007802, -2.056706
149330529.353045, -0.002429, 0.000241, -0.002781, -0.000000, 0.000000, -1.040000, -9.856607, -20.242825, -50.308010, -3.127321, -0.007654, -2.056025
149330529.354110, -0.000596, -0.002508, -0.000032, -0.000000, 0.000000, -1.040000, -9.815582, -20.260145, -50.316948, -3.127615, -0.007479, -2.055342
149330529.355138, -0.000291, -0.000675, 0.001801, -0.000000, -0.016000, -1.024000, -9.782762, -20.274002, -50.324097, -3.127587, -0.007322, -2.054975
149330529.356170, -0.002734, -0.000675, -0.000337, -0.000000, -0.016000, -1.024000, -9.756166, -20.364193, -50.330261, -3.127584, -0.007169, -2.054535
149330529.357201, -0.001207, -0.000064, 0.000579, 0.016000, -0.016000, -1.040000, -9.814945, -20.436001, -50.333546, -3.127569, -0.007332, -2.054750
149330529.358649, 0.002153, -0.000064, 0.001495, 0.016000, -0.016000, -1.040000, -9.861969, -20.493448, -50.336174, -3.127512, -0.007492, -2.054989
149330529.359840, 0.002764, 0.002684, 0.002106, -0.000000, -0.016000, -1.040000, -9.900013, -20.440525, -50.337719, -3.127455, -0.007373, -2.054658
149330529.360753, -0.002123, 0.000546, -0.001559, -0.000000, -0.016000, -1.040000, -9.930448, -20.398186, -50.338955, -3.127450, -0.007230, -2.054338
149330529.362320, -0.002428, 0.001157, 0.003633, -0.000000, -0.032000, -1.024000, -9.954796, -20.364315, -50.339943, -3.127145, -0.007103, -2.054472
149330529.363391, -0.001207, -0.002203, -0.001254, 0.048000, -0.016000, -1.072000, -9.954260, -20.337305, -50.341145, -3.127176, -0.007833, -2.055934
149330529.364381, 0.001848, -0.003119, -0.000338, 0.048000, -0.016000, -1.072000, -9.953831, -20.315697, -50.342106, -3.127174, -0.008541, -2.057386
149330529.365438, 0.000320, -0.000370, -0.000338, 0.032000, -0.016000, -1.024000, -9.953487, -20.298410, -50.342876, -3.127157, -0.008992, -2.058326
149330529.366505, -0.002428, -0.000981, 0.001189, 0.032000, -0.016000, -1.024000, -10.013850, -20.363171, -50.296631, -3.127169, -0.009427, -2.059278
149330529.367476, -0.000596, 0.001157, 0.002105, 0.016000, -0.016000, -1.056000, -10.062140, -20.414980, -50.259636, -3.127161, -0.009552, -2.059600
149330529.368530, -0.002733, -0.002202, 0.002410, 0.016000, -0.016000, -1.056000, -10.100773, -20.456427, -50.230042, -3.127175, -0.009641, -2.059932
149330529.369538, -0.002122, -0.004034, -0.000644, 0.016000, -0.016000, -1.008000, -10.131679, -20.489584, -50.206364, -3.127168, -0.009726, -2.060279
149330529.370602, -0.002122, -0.003118, -0.004309, 0.016000, -0.016000, -1.008000, -10.094831, -20.437775, -50.280350, -3.127163, -0.009817, -2.060575
149330529.371619, 0.000016, -0.001590, -0.001865, 0.016000, -0.016000, -1.040000, -10.065353, -20.396328, -50.339539, -3.127145, -0.009913, -2.060858
149330529.372626, 0.000627, -0.000063, -0.000949, 0.016000, -0.016000, -1.040000, -10.041771, -20.363171, -50.386890, -3.127120, -0.010022, -2.061141
149330529.373681, 0.000321, -0.000674, -0.001865, 0.016000, -0.016000, -1.040000, -9.982792, -20.356592, -50.425709, -3.127100, -0.010122, -2.061367
149330529.374709, -0.001816, 0.000242, -0.001864, -0.000000, -0.016000, -1.056000, -9.935609, -20.351330, -50.456764, -3.127107, -0.009922, -2.060926
149330529.375719, -0.000900, 0.000853, -0.000337, -0.000000, -0.016000, -1.056000, -9.897862, -20.347120, -50.481609, -3.127105, -0.009732, -2.060482
149330529.376760, 0.000627, -0.000674, -0.002170, 0.016000, -0.016000, -1.024000, -9.928473, -20.382792, -50.454403, -3.127077, -0.009844, -2.060679
149330529.377832, 0.000627, -0.002812, -0.000948, 0.016000, -0.016000, -1.024000, -9.952961, -20.411327, -50.432636, -3.127049, -0.009930, -2.060891
149330529.378830, 0.002154, 0.002686, -0.004612, -0.000000, 0.000000, -1.024000, -9.972551, -20.434156, -50.415222, -3.127323, -0.009763, -2.060123
149330529.379840, -0.000290, 0.002380, -0.000642, -0.000000, 0.000000, -1.024000, -10.008790, -20.432430, -50.377731, -3.127614, -0.009597, -2.059439
149330529.380904, -0.002733, -0.001590, -0.002780, 0.016000, -0.016000, -1.040000, -10.037781, -20.431049, -50.347740, -3.127616, -0.009696, -2.059699
149330529.381912, -0.000289, -0.003728, 0.001496, 0.016000, -0.016000, -1.040000, -10.060974, -20.429945, -50.323746, -3.127591, -0.009773, -2.060014
149330529.382938, -0.002427, 0.002686, 0.000580, 0.016000, -0.032000, -1.024000, -10.079529, -20.429060, -50.304550, -3.127273, -0.009923, -2.060701
149330529.383965, -0.007619, -0.003423, 0.000275, 0.016000, -0.032000, -1.024000, -10.095094, -20.368896, -50.265827, -3.127013, -0.010008, -2.061408
149330529.385007, 0.001544, -0.002811, 0.003023, -0.000000, -0.016000, -1.040000, -10.107546, -20.320765, -50.234848, -3.126982, -0.009779, -2.061172
149330529.386057, -0.000288, 0.003908, 0.001496, -0.000000, -0.016000, -1.040000, -10.117508, -20.282259, -50.210064, -3.126971, -0.009623, -2.060949
149330529.387080, -0.001510, 0.000242, 0.001801, -0.000000, 0.000000, -1.056000, -10.103722, -20.331030, -50.260201, -3.127281, -0.009437, -2.060387
149330529.388132, 0.003071, -0.002201, -0.000642, -0.000000, 0.000000, -1.056000, -10.092692, -20.370047, -50.300308, -3.127538, -0.009230, -2.059788
149330529.389121, -0.000288, -0.000979, -0.000031, -0.000000, -0.016000, -1.040000, -10.083869, -20.401260, -50.332394, -3.127516, -0.009035, -2.059501
149330529.390140, 0.000628, 0.001770, 0.002412, -0.000000, -0.016000, -1.040000, -10.157037, -20.386335, -50.356190, -3.127484, -0.008872, -2.059309
149330529.391191, -0.001510, -0.000979, 0.001190, -0.000000, -0.032000, -1.040000, -10.215571, -20.374395, -50.375229, -3.127166, -0.008686, -2.059500
149330529.392248, 0.000322, 0.000243, 0.000884, -0.000000, -0.032000, -1.040000, -10.262399, -20.364843, -50.390457, -3.126835, -0.008516, -2.059728
149330529.393276, -0.003953, 0.001770, 0.001800, -0.000000, -0.016000, -1.024000, -10.218402, -20.357929, -50.473392, -3.126858, -0.008364, -2.059593
149330529.394299, -0.007007, -0.001895, 0.003327, -0.000000, -0.016000, -1.024000, -10.183205, -20.352398, -50.539742, -3.126911, -0.008177, -2.059451
149330529.395301, 0.000324, -0.003727, 0.002105, 0.016000, 0.000000, -1.040000, -10.155046, -20.347973, -50.592819, -3.127201, -0.008284, -2.059559
149330529.396394, 0.000934, -0.000978, 0.004243, 0.016000, 0.000000, -1.040000, -10.132521, -20.344433, -50.635284, -3.127479, -0.008414, -2.059675
149330529.397378, -0.000898, 0.001159, 0.001799, -0.000000, -0.016000, -1.056000, -10.176242, -20.380383, -50.576103, -3.127468, -0.008257, -2.059488
149330529.399152, -0.001814, 0.002381, -0.000033, -0.000000, -0.016000, -1.056000, -10.211219, -20.409143, -50.528759, -3.127480, -0.008133, -2.059303
149330529.400027, 0.001240, 0.003908, -0.000033, -0.000000, -0.016000, -1.040000, -10.318322, -20.432064, -50.535305, -3.127444, -0.008004, -2.059203
149330529.400884, 0.001545, 0.004213, -0.001255, -0.000000, -0.016000, -1.040000, -10.404005, -20.450401, -50.540543, -3.127407, -0.007880, -2.059155
149330529.401712, 0.003988, 0.002074, 0.001494, -0.000000, -0.016000, -1.040000, -10.472551, -20.465071, -50.544731, -3.127350, -0.007740, -2.059178
149330529.402549, -0.000593, 0.000547, -0.001560, -0.000000, -0.016000, -1.040000, -10.527389, -20.476807, -50.548080, -3.127332, -0.007590, -2.059215
149330529.403548, -0.001509, -0.000064, -0.003087, -0.000000, -0.016000, -1.040000, -10.471825, -20.446943, -50.529564, -3.127325, -0.007438, -2.059201
149330529.404601, -0.003952, -0.000980, -0.001865, -0.000000, -0.016000, -1.008000, -10.427373, -20.423054, -50.514751, -3.127334, -0.007281, -2.059185
149330529.405641, -0.004257, 0.002685, -0.003697, -0.000000, -0.016000, -1.008000, -10.391811, -20.403942, -50.502899, -3.127346, -0.007163, -2.059130
149330529.406653, -0.000287, -0.001591, -0.000949, 0.016000, -0.016000, -1.056000, -10.363362, -20.388653, -50.493420, -3.127332, -0.007307, -2.059674
149330529.407682, 0.000630, 0.000547, -0.002475, 0.016000, -0.016000, -1.056000, -10.340603, -20.376421, -50.485836, -3.127311, -0.007470, -2.060180
149330529.408699, 0.000019, 0.002685, -0.001254, -0.000000, -0.016000, -1.040000, -10.322395, -20.366636, -50.479767, -3.127289, -0.007348, -2.060081
149330529.409725, 0.000935, -0.000980, 0.000579, -0.000000, -0.016000, -1.040000, -10.307830, -20.358809, -50.474915, -3.127258, -0.007191, -2.059992
149330529.410773, -0.000592, 0.001463, -0.002475, -0.000000, -0.016000, -1.008000, -10.336036, -20.391926, -50.470432, -3.127234, -0.007063, -2.059894
149330529.411798, -0.000898, -0.000370, 0.001801, -0.000000, -0.016000, -1.008000, -10.358601, -20.418421, -50.466846, -3.127213, -0.006917, -2.059847
149330529.412841, 0.000324, -0.001591, 0.001190, 0.016000, -0.016000, -1.040000, -10.376653, -20.439615, -50.463978, -3.127192, -0.007070, -2.060400
149330529.413852, -0.001508, -0.001591, 0.001190, 0.016000, -0.016000, -1.040000, -10.371335, -20.397329, -50.461758, -3.127189, -0.007221, -2.060957
149330529.414883, -0.003646, -0.001591, 0.001189, 0.016000, -0.016000, -1.024000, -10.367081, -20.363501, -50.459984, -3.127204, -0.007373, -2.061528
149330529.415911, 0.000630, -0.003118, -0.001865, 0.016000, -0.016000, -1.024000, -10.363677, -20.336437, -50.458565, -3.127175, -0.007507, -2.062067
149330529.416953, 0.001241, -0.001285, 0.000273, -0.000000, -0.032000, -1.040000, -10.340005, -20.315128, -50.503910, -3.126835, -0.007346, -2.062323
149330529.417994, -0.003951, 0.000242, -0.000032, -0.000000, -0.032000, -1.040000, -10.321068, -20.298080, -50.540184, -3.126554, -0.007203, -2.062565
149330529.419048, -0.001813, 0.000548, 0.000884, 0.016000, -0.016000, -1.040000, -10.305918, -20.284443, -50.569206, -3.126568, -0.007373, -2.063076
149330529.420080, 0.000630, 0.000242, 0.000884, 0.016000, -0.016000, -1.040000, -10.293797, -20.273533, -50.592422, -3.126556, -0.007535, -2.063573
149330529.421060, 0.000630, 0.002074, 0.003022, 0.016000, -0.016000, -1.040000, -10.322686, -20.383545, -50.656910, -3.126545, -0.007712, -2.064056
149330529.422097, -0.003645, -0.001285, 0.002411, 0.016000, -0.016000, -1.040000, -10.345798, -20.471556, -50.708500, -3.126576, -0.007852, -2.064505
149330529.423152, 0.000936, 0.001769, 0.001189, 0.016000, -0.016000, -1.056000, -10.364286, -20.541964, -50.749771, -3.126565, -0.008016, -2.064903
149330529.424180, -0.003340, 0.002990, -0.001255, 0.016000, -0.016000, -1.056000, -10.340025, -20.479677, -50.759907, -3.126598, -0.008189, -2.065276
149330529.425191, -0.001201, 0.002990, 0.002105, 0.016000, -0.016000, -1.056000, -10.320616, -20.429848, -50.768017, -3.126608, -0.008357, -2.065683
149330529.426255, 0.003380, 0.001463, -0.000338, 0.016000, -0.016000, -1.056000, -10.305089, -20.389984, -50.774506, -3.126571, -0.008508, -2.066062
149330529.427262, -0.001812, 0.001768, -0.003698, -0.000000, -0.016000, -1.024000, -10.314721, -20.317944, -50.686924, -3.126578, -0.008356, -2.065841
149330529.428282, -0.003034, 0.001157, -0.000643, -0.000000, -0.016000, -1.024000, -10.322427, -20.260311, -50.616856, -3.126596, -0.008201, -2.065686
149330529.429301, -0.003644, 0.000546, 0.003327, -0.000000, -0.016000, -1.024000, -10.328591, -20.214205, -50.560802, -3.126621, -0.008042, -2.065597
149330529.430390, -0.003033, -0.000370, 0.001189, -0.000000, -0.016000, -1.040000, -10.352560, -20.296019, -50.539253, -3.126645, -0.007877, -2.065468
149330529.431410, 0.000632, 0.001462, 0.001799, -0.000000, -0.016000, -1.040000, -10.371736, -20.361469, -50.522015, -3.126631, -0.007734, -2.065335
149330529.432436, 0.005824, 0.000851, 0.002410, -0.000000, 0.000000, -1.024000, -10.387075, -20.413830, -50.508221, -3.126873, -0.007591, -2.064881
149330529.433429, 0.001853, 0.003905, 0.000272, -0.000000, 0.000000, -1.024000, -10.399347, -20.455719, -50.497189, -3.127151, -0.007481, -2.064408
149330529.434477, -0.002118, 0.000851, -0.000950, -0.000000, -0.032000, -1.008000, -10.447494, -20.450018, -50.579453, -3.126826, -0.007342, -2.064656
149330529.435621, 0.001242, -0.002509, 0.000272, -0.000000, -0.032000, -1.008000, -10.486011, -20.445457, -50.645264, -3.126472, -0.007170, -2.064946
149330529.436555, 0.000631, 0.000851, -0.001560, -0.000000, -0.016000, -1.024000, -10.516824, -20.441809, -50.697910, -3.126456, -0.007034, -2.064878
149330529.437571, -0.004255, 0.004210, -0.001560, -0.000000, -0.016000, -1.024000, -10.503655, -20.359446, -50.648270, -3.126489, -0.006936, -2.064835
149330529.438601, 0.000326, -0.000677, 0.002105, -0.000000, -0.016000, -1.040000, -10.493121, -20.293554, -50.608555, -3.126480, -0.006791, -2.064843
149330529.439652, -0.003033, 0.000240, 0.000272, -0.000000, -0.016000, -1.040000, -10.484694, -20.240843, -50.576786, -3.126506, -0.006658, -2.064849
149330529.440648, -0.003949, 0.002988, 0.000577, 0.016000, 0.000000, -1.056000, -10.496606, -20.297724, -50.597584, -3.126847, -0.006855, -2.065106
149330529.441692, 0.003075, -0.000371, 0.002104, 0.016000, 0.000000, -1.056000, -10.506136, -20.343229, -50.614223, -3.127111, -0.007015, -2.065362
149330529.442703, -0.002728, -0.000982, 0.003020, 0.016000, 0.000000, -1.040000, -10.513761, -20.379633, -50.627533, -3.127429, -0.007171, -2.065620
149330529.443756, -0.002116, -0.000677, 0.002409, 0.016000, 0.000000, -1.040000, -10.579605, -20.369074, -50.659756, -3.127734, -0.007326, -2.065923
149330529.444791, 0.001854, -0.001287, 0.003020, -0.000000, -0.032000, -1.056000, -10.632280, -20.360626, -50.685535, -3.127385, -0.007169, -2.066339
149330529.445807, -0.001811, -0.001898, -0.004616, -0.000000, -0.032000, -1.056000, -10.674421, -20.353868, -50.706158, -3.127081, -0.007011, -2.066707
149330529.446834, -0.002116, 0.002072, -0.001561, 0.016000, 0.000000, -1.040000, -10.708134, -20.348463, -50.722656, -3.127394, -0.007197, -2.067053
149330529.447854, -0.001811, 0.000545, -0.004004, 0.016000, 0.000000, -1.040000, -10.675444, -20.364044, -50.714169, -3.127697, -0.007364, -2.067336
149330529.448923, 0.000633, -0.004952, 0.002410, -0.000000, 0.000000, -1.024000, -10.649291, -20.376509, -50.707378, -3.127969, -0.007167, -2.067060
149330529.449945, -0.000283, -0.001592, 0.002104, -0.000000, 0.000000, -1.024000, -10.628369, -20.386480, -50.701946, -3.128246, -0.007009, -2.066767
149330529.450959, 0.002160, 0.000240, 0.001188, -0.000000, -0.032000, -1.040000, -10.591618, -20.394543, -50.698013, -3.127875, -0.006874, -2.067110
149330529.452054, -0.003338, 0.003600, 0.001798, -0.000000, -0.032000, -1.040000, -10.562217, -20.400993, -50.694866, -3.127568, -0.006777, -2.067427
149330529.453027, -0.001505, 0.003599, 0.001493, -0.000000, 0.000000, -1.040000, -10.538695, -20.406155, -50.692348, -3.127865, -0.006679, -2.067043
149330529.454066, -0.003032, 0.002072, 0.000882, -0.000000, 0.000000, -1.040000, -10.518944, -20.410538, -50.736404, -3.128171, -0.006569, -2.066644
149330529.455076, -0.003948, -0.002204, -0.000034, 0.016000, -0.016000, -1.008000, -10.503142, -20.414045, -50.771648, -3.128164, -0.006734, -2.067192
149330529.456108, -0.001809, 0.000545, 0.001798, 0.016000, -0.016000, -1.008000, -10.490501, -20.416851, -50.799843, -3.128135, -0.006922, -2.067739
149330529.457130, -0.000282, 0.002378, -0.002173, 0.016000, 0.000000, -1.056000, -10.480389, -20.419096, -50.822399, -3.128408, -0.007110, -2.067850
149330529.458269, -0.003642, -0.002204, -0.002172, 0.016000, 0.000000, -1.056000, -10.472681, -20.440540, -50.817520, -3.128713, -0.007246, -2.067941
149330529.459221, 0.000634, -0.003425, 0.000271, 0.016000, 0.000000, -1.056000, -10.466515, -20.457695, -50.813618, -3.128964, -0.007371, -2.068046
149330529.460227, 0.000634, -0.000371, -0.002478, 0.016000, -0.016000, -1.056000, -10.461582, -20.471418, -50.810497, -3.128910, -0.007524, -2.068443
149330529.461283, -0.004863, 0.000546, -0.003088, 0.016000, -0.016000, -1.056000, -10.497663, -20.482225, -50.807175, -3.128912, -0.007683, -2.068846
149330529.462312, 0.001246, 0.002072, 0.000577, 0.032000, -0.016000, -1.040000, -10.526529, -20.490871, -50.804520, -3.128858, -0.008166, -2.069899
149330529.463367, -0.002419, 0.001156, 0.000577, 0.032000, -0.016000, -1.040000, -10.549622, -20.497789, -50.802395, -3.128841, -0.008631, -2.070944
149330529.464342, -0.001198, 0.000851, 0.002104, 0.016000, -0.016000, -1.040000, -10.607826, -20.463726, -50.822681, -3.128801, -0.008775, -2.071457
149330529.465382, 0.003384, 0.003599, -0.000034, 0.016000, -0.016000, -1.040000, -10.654390, -20.436476, -50.838909, -3.128717, -0.008944, -2.071986
149330529.466463, 0.003689, -0.002815, -0.002477, -0.000000, -0.032000, -1.024000, -10.691642, -20.414677, -50.851891, -3.128309, -0.008739, -2.072272
149330529.467467, -0.001198, -0.000982, -0.003088, -0.000000, -0.032000, -1.024000, -10.662888, -20.377335, -50.794300, -3.127961, -0.008557, -2.072541
149330529.468498, -0.005474, 0.001767, -0.000950, 0.016000, 0.000000, -1.040000, -10.639884, -20.347460, -50.748226, -3.128289, -0.008710, -2.072726
149330529.469513, 0.002773, -0.000066, 0.000883, 0.016000, 0.000000, -1.040000, -10.621481, -20.323561, -50.711369, -3.128528, -0.008842, -2.072921
149330529.470558, 0.000635, -0.000677, 0.000272, -0.000000, -0.032000, -1.040000, -10.606758, -20.304441, -50.681881, -3.128167, -0.008660, -2.073185
149330529.471561, 0.000635, 0.000850, -0.001255, -0.000000, -0.032000, -1.040000, -10.593239, -20.368633, -50.727840, -3.127813, -0.008498, -2.073390
149330529.472624, -0.001198, -0.000982, -0.000034, 0.016000, -0.016000, -1.024000, -10.582423, -20.419987, -50.764610, -3.127790, -0.008630, -2.073846
149330529.473639, 0.001245, 0.001156, 0.003631, 0.016000, -0.016000, -1.024000, -10.573771, -20.461071, -50.794025, -3.127743, -0.008781, -2.074306
149330529.474678, -0.006390, 0.002377, -0.001561, 0.016000, -0.032000, -1.040000, -10.666451, -20.493637, -50.838531, -3.127472, -0.008944, -2.075109
149330529.475724, 0.000635, 0.000239, 0.003326, 0.016000, -0.032000, -1.040000, -10.740597, -20.519690, -50.874134, -3.127136, -0.009082, -2.075990
149330529.476732, 0.003384, 0.001461, 0.001493, -0.000000, 0.000000, -1.040000, -10.799912, -20.540531, -50.902618, -3.127393, -0.008917, -2.075581
149330529.477746, -0.001503, 0.000544, -0.000340, -0.000000, 0.000000, -1.040000, -10.847153, -20.498005, -50.948105, -3.127693, -0.008747, -2.075216
149330529.478765, -0.002724, -0.002204, 0.000271, 0.016000, -0.016000, -1.040000, -10.884945, -20.463984, -50.984493, -3.127693, -0.008858, -2.075838
149330529.479797, 0.001551, -0.002509, 0.001493, 0.016000, -0.016000, -1.040000, -10.915179, -20.436766, -51.013603, -3.127650, -0.008964, -2.076495
149330529.480859, 0.001857, -0.000371, 0.002103, 0.032000, -0.032000, -1.040000, -10.879791, -20.415123, -51.015095, -3.127311, -0.009408, -2.078088
149330529.481874, -0.001808, 0.002683, -0.000035, 0.032000, -0.032000, -1.040000, -10.851480, -20.397808, -51.016289, -3.127015, -0.009873, -2.079615
149330529.482887, -0.004862, 0.002072, -0.001562, 0.016000, -0.032000, -1.040000, -10.828833, -20.383957, -51.017242, -3.126743, -0.010011, -2.080493
149330529.483952, 0.000330, 0.001155, -0.003394, 0.016000, -0.032000, -1.040000, -10.810714, -20.372875, -51.018005, -3.126424, -0.010138, -2.081325
149330529.484962, 0.002468, 0.000850, 0.000577, -0.000000, -0.016000, -1.008000, -10.855837, -20.462633, -51.017937, -3.126386, -0.009943, -2.081215
149330529.486006, -0.000586, -0.000677, -0.000340, -0.000000, -0.016000, -1.008000, -10.891935, -20.534439, -51.017883, -3.126379, -0.009738, -2.081095
149330529.487013, -0.003946, -0.000067, -0.000645, -0.000000, -0.016000, -1.008000, -10.920814, -20.591883, -51.017838, -3.126405, -0.009542, -2.080972
149330529.488039, 0.000330, -0.002510, -0.003699, 0.016000, -0.032000, -1.040000, -10.843336, -20.539642, -51.065376, -3.126093, -0.009640, -2.081739
149330529.489097, -0.001502, -0.001899, -0.002477, 0.016000, -0.032000, -1.040000, -10.781354, -20.497850, -51.103405, -3.125806, -0.009742, -2.082476
149330529.490129, 0.000025, 0.002072, -0.000339, 0.016000, -0.016000, -1.040000, -10.731768, -20.464417, -51.133831, -3.125815, -0.009875, -2.082835
149330529.491153, 0.001247, 0.000545, -0.000644, 0.016000, -0.016000, -1.040000, -10.713600, -20.417423, -51.088543, -3.125811, -0.009991, -2.083189
149330529.492202, 0.002163, 0.001155, -0.000033, -0.000000, -0.016000, -1.040000, -10.699066, -20.379829, -51.052311, -3.125798, -0.009803, -2.082938
149330529.493224, -0.002113, 0.003598, -0.000950, -0.000000, -0.016000, -1.040000, -10.687439, -20.349754, -51.023327, -3.125829, -0.009643, -2.082686
149330529.494249, -0.004861, -0.000372, -0.000644, -0.000000, 0.000000, -1.040000, -10.658336, -20.384981, -50.977852, -3.126196, -0.009451, -2.082076
149330529.495247, -0.002112, 0.000544, -0.001560, -0.000000, 0.000000, -1.040000, -10.635053, -20.413162, -50.941471, -3.126528, -0.009273, -2.081440
149330529.496296, -0.000891, 0.002071, 0.000578, 0.016000, -0.016000, -1.040000, -10.616426, -20.435707, -50.912369, -3.126531, -0.009416, -2.081749
149330529.497350, 0.002469, 0.000238, -0.001255, 0.016000, -0.016000, -1.040000, -10.601525, -20.453743, -50.889084, -3.126500, -0.009538, -2.082014
149330529.498374, 0.003385, -0.000372, 0.000272, 0.016000, -0.016000, -1.040000, -10.588924, -20.409100, -50.916191, -3.126461, -0.009651, -2.082299
149330529.499375, 0.002163, -0.003426, 0.003326, 0.016000, -0.016000, -1.040000, -10.578844, -20.373384, -50.937878, -3.126436, -0.009732, -2.082616
149330529.500438, -0.002418, 0.001460, -0.000339, -0.000000, 0.000000, -1.024000, -10.570780, -20.344812, -50.955227, -3.126767, -0.009557, -2.081959
149330529.501445, -0.004861, -0.001288, 0.000883, -0.000000, 0.000000, -1.024000, -10.565730, -20.321571, -50.900002, -3.127114, -0.009358, -2.081332
149330529.502513, 0.000331, -0.000372, 0.000577, -0.000000, -0.016000, -1.040000, -10.561690, -20.302979, -50.855824, -3.127094, -0.009166, -2.081048
149330529.503542, -0.002418, -0.001288, -0.000644, -0.000000, -0.016000, -1.040000, -10.558458, -20.288103, -50.820480, -3.127102, -0.008970, -2.080759
149330529.504549, 0.001858, -0.003121, 0.001188, 0.016000, -0.016000, -1.072000, -10.575717, -20.315670, -50.792015, -3.127076, -0.009058, -2.081079
149330529.505555, 0.000942, -0.000982, 0.002104, 0.016000, -0.016000, -1.072000, -10.589524, -20.337723, -50.769245, -3.127059, -0.009166, -2.081402
149330529.506610, 0.002469, -0.000982, 0.000577, -0.000000, -0.016000, -1.040000, -10.600570, -20.355366, -50.751026, -3.127018, -0.008972, -2.081123
149330529.507623, 0.003079, 0.000850, 0.003631, -0.000000, -0.016000, -1.040000, -10.609406, -20.369480, -50.736454, -3.126972, -0.008800, -2.080881
149330529.508666, -0.004251, -0.001898, -0.001867, -0.000000, -0.016000, -1.008000, -10.614734, -20.460260, -50.794346, -3.126992, -0.008605, -2.080565
149330529.509675, -0.002112, 0.001461, -0.000339, -0.000000, -0.016000, -1.008000, -10.618996, -20.532885, -50.840660, -3.126989, -0.008447, -2.080245
149330529.511650, 0.002164, 0.004821, 0.003326, -0.000000, 0.000000, -1.056000, -10.623467, -20.452421, -50.853893, -3.127241, -0.008375, -2.079702
149330529.512497, 0.005218, 0.000545, 0.000272, -0.000000, 0.000000, -1.056000, -10.627045, -20.388052, -50.864483, -3.127487, -0.008216, -2.079135
149330529.513296, -0.001807, 0.002072, -0.000339, 0.016000, -0.016000, -1.040000, -10.629907, -20.336555, -50.872952, -3.127477, -0.008376, -2.079535
149330529.514135, -0.001196, -0.000983, -0.000950, 0.016000, -0.016000, -1.040000, -10.632195, -20.295359, -50.879726, -3.127463, -0.008508, -2.079942
149330529.515016, -0.000280, 0.002072, 0.000577, 0.016000, -0.016000, -1.040000, -10.614056, -20.361240, -50.863083, -3.127441, -0.008664, -2.080311
149330529.515871, 0.001247, 0.000239, -0.000339, 0.016000, -0.016000, -1.040000, -10.599544, -20.413946, -50.849766, -3.127407, -0.008801, -2.080630
149330529.516923, 0.000025, 0.000239, 0.002715, 0.016000, -0.016000, -1.040000, -10.587934, -20.456110, -50.839115, -3.127384, -0.008934, -2.080945
149330529.517953, 0.006133, 0.000544, 0.001798, -0.000000, 0.000000, -1.024000, -10.678038, -20.430340, -50.874268, -3.127608, -0.008765, -2.080391
149330529.518984, 0.000330, -0.002204, 0.002104, -0.000000, 0.000000, -1.024000, -10.750120, -20.409723, -50.902390, -3.127887, -0.008570, -2.079915
149330529.520018, -0.003335, 0.002682, 0.000271, -0.000000, -0.016000, -1.008000, -10.807786, -20.393230, -50.924889, -3.127877, -0.008426, -2.079822
149330529.521041, -0.006388, -0.000983, -0.000035, -0.000000, -0.016000, -1.008000, -10.853919, -20.380035, -50.942886, -3.127898, -0.008248, -2.079769
149330529.522093, -0.002723, 0.001155, 0.000576, 0.016000, -0.016000, -1.056000, -10.852029, -20.408821, -50.889229, -3.127899, -0.008398, -2.080287
149330529.523111, 0.004301, 0.003904, 0.000576, 0.016000, -0.016000, -1.056000, -10.850517, -20.431849, -50.846302, -3.127829, -0.008572, -2.080783
149330529.524142, 0.001552, 0.001766, -0.000340, -0.000000, -0.048000, -1.040000, -10.849308, -20.450272, -50.811962, -3.127163, -0.008428, -2.081390
149330529.525143, -0.004861, -0.002510, -0.003394, -0.000000, -0.048000, -1.040000, -10.807548, -20.425884, -50.831161, -3.126575, -0.008244, -2.081932
149330529.526178, -0.004250, -0.003121, -0.000645, -0.000000, -0.032000, -1.024000, -10.774138, -20.406374, -50.846519, -3.126293, -0.008049, -2.082107
149330529.527242, -0.002112, -0.001593, 0.001187, -0.000000, -0.032000, -1.024000, -10.747412, -20.390766, -50.858807, -3.125996, -0.007873, -2.082284
149330529.528235, -0.001195, 0.002682, 0.002104, -0.000000, 0.000000, -1.024000, -10.745874, -20.417746, -50.868446, -3.126322, -0.007745, -2.081764
149330529.529267, -0.001195, -0.002204, 0.000271, -0.000000, 0.000000, -1.024000, -10.744645, -20.439329, -50.876156, -3.126641, -0.007572, -2.081226
149330529.530355, -0.005165, -0.003426, -0.000340, -0.000000, 0.000000, -1.024000, -10.743661, -20.456596, -50.882324, -3.126997, -0.007388, -2.080684
149330529.531332, -0.001805, 0.001461, -0.003088, -0.000000, 0.000000, -1.024000, -10.702506, -20.549686, -50.888531, -3.127309, -0.007259, -2.080059
149330529.532392, 0.002165, 0.002072, -0.001256, 0.016000, -0.016000, -1.024000, -10.669582, -20.624159, -50.893497, -3.127260, -0.007448, -2.080349
149330529.533415, -0.001195, 0.001766, -0.002477, 0.016000, -0.016000, -1.024000, -10.643243, -20.683737, -50.897469, -3.127248, -0.007630, -2.080575
149330529.534425, -0.003332, 0.000239, -0.004004, -0.000000, -0.016000, -1.024000, -10.622171, -20.731400, -50.900646, -3.127257, -0.007480, -2.080132
149330529.535438, 0.002165, 0.000239, -0.000339, -0.000000, -0.016000, -1.024000, -10.646150, -20.690125, -50.878883, -3.127211, -0.007333, -2.079770
149330529.536493, 0.001249, -0.001288, 0.002105, -0.000000, -0.016000, -1.040000, -10.665332, -20.657104, -50.861473, -3.127179, -0.007172, -2.079464
149330529.537523, -0.000889, -0.003731, 0.000272, -0.000000, -0.016000, -1.040000, -10.680678, -20.630690, -50.847542, -3.127170, -0.006991, -2.079168
149330529.538559, 0.002165, -0.000982, 0.000577, -0.000000, -0.016000, -1.024000, -10.712418, -20.629375, -50.859135, -3.127125, -0.006841, -2.078911
149330529.539604, -0.002416, -0.002204, -0.001255, -0.000000, -0.016000, -1.024000, -10.737808, -20.628325, -50.868408, -3.127127, -0.006682, -2.078661
149330529.540611, 0.000333, -0.000371, -0.000644, 0.016000, 0.000000, -1.056000, -10.758121, -20.627483, -50.875828, -3.127413, -0.006847, -2.078691
149330529.541667, -0.002111, -0.001593, -0.001560, 0.016000, 0.000000, -1.056000, -10.794895, -20.508068, -50.880680, -3.127719, -0.006996, -2.078787
149330529.542710, 0.001554, 0.000851, 0.001188, -0.000000, -0.016000, -1.056000, -10.824314, -20.412535, -50.884563, -3.127678, -0.006866, -2.078714
149330529.543709, 0.001860, -0.000371, -0.000644, -0.000000, -0.016000, -1.056000, -10.847850, -20.336109, -50.887669, -3.127635, -0.006725, -2.078676
149330529.544718, 0.002776, -0.001287, 0.001494, -0.000000, -0.016000, -1.056000, -10.866338, -20.354073, -50.890598, -3.127584, -0.006578, -2.078665
149330529.545875, 0.006135, -0.001287, 0.000272, 0.016000, -0.016000, -1.008000, -10.821086, -20.368702, -50.894180, -3.127480, -0.006750, -2.079242
149330529.546849, 0.003692, 0.002072, -0.000033, 0.016000, -0.016000, -1.024000, -10.784884, -20.380405, -50.897045, -3.127417, -0.006948, -2.079756
149330529.547848, 0.002470, -0.000982, 0.001799, 0.016000, -0.016000, -1.024000, -10.755923, -20.389767, -50.899338, -3.127365, -0.007112, -2.080251
149330529.548863, -0.003028, -0.001593, 0.000577, 0.016000, -0.016000, -1.024000, -10.791778, -20.417030, -50.946117, -3.127370, -0.007266, -2.080740
149330529.549899, 0.000332, -0.000982, -0.000339, -0.000000, -0.016000, -1.040000, -10.820461, -20.438841, -50.983540, -3.127343, -0.007111, -2.080604
149330529.550913, -0.000584, -0.000371, -0.001866, -0.000000, -0.016000, -1.040000, -10.783917, -20.436644, -50.991566, -3.127327, -0.006965, -2.080428
149330529.552549, -0.003333, 0.001156, -0.002171, 0.016000, -0.016000, -1.024000, -10.754683, -20.434887, -50.997986, -3.127356, -0.007158, -2.080838
149330529.554872, -0.002416, 0.000240, 0.000883, -0.000000, -0.016000, -1.040000, -10.692583, -20.453045, -50.934956, -3.127388, -0.007020, -2.080617
149330529.555746, 0.001249, 0.001767, 0.000883, 0.016000, 0.000000, -1.024000, -10.642904, -20.467571, -50.884533, -3.127661, -0.007207, -2.080621
149330529.556577, 0.003386, 0.002683, -0.000339, 0.016000, 0.000000, -1.024000, -10.603161, -20.479193, -50.844193, -3.127912, -0.007397, -2.080579
149330529.557412, 0.002775, 0.000850, -0.000033, 0.016000, 0.000000, -1.024000, -10.571366, -20.488489, -50.811920, -3.128163, -0.007569, -2.080513
149330529.558272, -0.000890, 0.001156, -0.001255, -0.000000, 0.000000, -1.040000, -10.664742, -20.574772, -50.830147, -3.128441, -0.007432, -2.079871
149330529.559184, -0.003638, -0.000677, 0.000578, -0.000000, 0.000000, -1.040000, -10.739441, -20.643799, -50.844727, -3.128739, -0.007281, -2.079288
149330529.560180, 0.000332, -0.000982, 0.005464, 0.016000, -0.032000, -1.040000, -10.799201, -20.699020, -50.856392, -3.128380, -0.007439, -2.080066
149330529.561234, -0.000279, -0.000066, 0.003020, 0.016000, -0.032000, -1.040000, -10.847009, -20.743196, -50.865723, -3.128035, -0.007603, -2.080822
149330529.562253, 0.002470, 0.002683, 0.004547, 0.016000, 0.000000, -1.024000, -10.844802, -20.660309, -50.919411, -3.128281, -0.007789, -2.080929
149330529.563315, 0.007662, -0.000677, 0.001187, 0.016000, 0.000000, -1.024000, -10.843037, -20.593998, -50.962360, -3.128468, -0.007938, -2.081027
149330529.564299, 0.001247, 0.000239, 0.000271, -0.000000, 0.000000, -1.024000, -10.841624, -20.540951, -50.996723, -3.128720, -0.007785, -2.080537
149330529.565388, -0.002112, -0.000677, -0.000035, -0.000000, 0.000000, -1.024000, -10.862080, -20.458488, -50.954472, -3.129002, -0.007624, -2.080103
149330529.566375, -0.001807, 0.001156, -0.000340, 0.016000, -0.016000, -1.024000, -10.878445, -20.392519, -50.920670, -3.128961, -0.007796, -2.080662
149330529.567413, -0.002112, 0.000545, -0.001562, 0.016000, -0.016000, -1.024000, -10.891537, -20.339745, -50.893631, -3.128925, -0.007959, -2.081230
149330529.568494, -0.004249, 0.000239, 0.000882, 0.032000, -0.032000, -1.040000, -10.901968, -20.416054, -50.849636, -3.128625, -0.008431, -2.082725
149330529.569473, -0.000279, -0.000677, 0.003630, 0.032000, -0.032000, -1.040000, -10.910313, -20.477100, -50.814438, -3.128287, -0.008882, -2.084191
149330529.570510, 0.001248, -0.000066, 0.001492, 0.016000, -0.032000, -1.040000, -10.916988, -20.525938, -50.786282, -3.127928, -0.009018, -2.085002
149330529.571540, 0.004608, -0.002509, 0.001492, 0.016000, -0.032000, -1.040000, -10.922329, -20.565008, -50.763756, -3.127542, -0.009126, -2.085782
149330529.572551, 0.000026, 0.000545, 0.001186, 0.016000, -0.032000, -1.040000, -10.926304, -20.556841, -50.768547, -3.127210, -0.009262, -2.086550
149330529.573615, 0.000942, 0.000239, 0.003629, 0.016000, -0.032000, -1.040000, -10.929483, -20.550306, -50.772377, -3.126874, -0.009393, -2.087334
149330529.574652, -0.000890, -0.002815, 0.000575, 0.016000, -0.032000, -1.040000, -10.932028, -20.545078, -50.775444, -3.126565, -0.009489, -2.088075
149330529.575661, 0.003385, 0.001156, -0.002174, 0.016000, -0.032000, -1.056000, -10.914941, -20.441975, -50.754715, -3.126228, -0.009620, -2.088789
149330529.577583, -0.002112, -0.003425, 0.000270, -0.000000, -0.016000, -1.040000, -10.901271, -20.359491, -50.738132, -3.126268, -0.009363, -2.088595
149330529.578439, 0.001248, -0.000371, 0.000880, -0.000000, -0.016000, -1.040000, -10.869557, -20.471575, -50.726284, -3.126258, -0.009172, -2.088336
149330529.579290, -0.003334, -0.001287, -0.004311, -0.000000, -0.016000, -1.040000, -10.844186, -20.561243, -50.716805, -3.126287, -0.008979, -2.087979
149330529.580151, -0.000890, -0.002814, -0.002479, -0.000000, -0.016000, -1.040000, -10.823889, -20.632977, -50.709221, -3.126294, -0.008776, -2.087598
149330529.580979, -0.003944, 0.001462, -0.000951, -0.000000, -0.016000, -1.040000, -10.807652, -20.690363, -50.703156, -3.126326, -0.008612, -2.087202
149330529.581820, -0.003333, 0.000546, -0.001867, -0.000000, -0.016000, -1.040000, -10.793684, -20.637775, -50.766846, -3.126353, -0.008445, -2.086818
149330529.583504, -0.003027, -0.002203, -0.000035, -0.000000, -0.016000, -1.040000, -10.782510, -20.595705, -50.817799, -3.126402, -0.008240, -2.086465
149330529.584385, 0.000638, -0.000676, 0.002408, -0.000000, -0.016000, -1.040000, -10.773571, -20.562050, -50.858562, -3.126394, -0.008069, -2.086148
149330529.585198, 0.002776, -0.001287, 0.002408, -0.000000, -0.016000, -1.040000, -10.727368, -20.633795, -50.823452, -3.126369, -0.007897, -2.085770
149330529.586011, -0.001195, -0.001286, 0.001186, -0.000000, -0.032000, -1.040000, -10.690407, -20.691191, -50.795364, -3.126068, -0.007728, -2.085678
149330529.587059, -0.003943, 0.003906, -0.000341, -0.000000, -0.032000, -1.040000, -10.660837, -20.737106, -50.772892, -3.125805, -0.007612, -2.085531
149330529.588010, -0.006691, 0.002378, -0.001562, 0.016000, -0.016000, -1.024000, -10.637181, -20.773840, -50.754917, -3.125871, -0.007795, -2.085618
149330529.589063, -0.001804, -0.001287, 0.000576, 0.016000, -0.016000, -1.024000, -10.696784, -20.724289, -50.830578, -3.125892, -0.007937, -2.085791
149330529.590100, 0.000028, 0.001156, 0.000575, 0.032000, -0.016000, -1.040000, -10.744466, -20.684649, -50.891109, -3.125907, -0.008405, -2.086580
149330529.591096, 0.001861, 0.000240, -0.000646, 0.032000, -0.016000, -1.040000, -10.782612, -20.652937, -50.939533, -3.125904, -0.008855, -2.087384
149330529.592117, 0.004304, -0.001898, -0.001257, -0.000000, -0.016000, -1.024000, -10.774119, -20.607706, -50.932915, -3.125864, -0.008659, -2.087002
149330529.593189, -0.003637, 0.003905, -0.000341, -0.000000, -0.016000, -1.024000, -10.767325, -20.571522, -50.927620, -3.125906, -0.008527, -2.086648
149330529.594259, -0.001499, -0.000676, 0.001797, -0.000000, -0.032000, -1.024000, -10.761890, -20.542574, -50.923386, -3.125610, -0.008349, -2.086684
149330529.595230, -0.000277, 0.003599, 0.001797, -0.000000, -0.032000, -1.024000, -10.757458, -20.539192, -50.920109, -3.125307, -0.008216, -2.086717
149330529.596324, -0.003942, 0.001461, 0.001797, -0.000000, 0.000000, -1.024000, -10.752976, -20.536743, -50.963558, -3.125677, -0.008072, -2.086063
149330529.597292, 0.000029, -0.003120, -0.000647, -0.000000, 0.000000, -1.024000, -10.749392, -20.534784, -50.998318, -3.125998, -0.007887, -2.085395
149330529.598312, -0.004247, -0.001593, 0.000575, 0.016000, -0.016000, -1.040000, -10.746524, -20.533216, -51.026123, -3.126046, -0.008020, -2.085682
149330529.599341, -0.001803, -0.000982, 0.002102, 0.016000, -0.016000, -1.040000, -10.746099, -20.531450, -50.956230, -3.126068, -0.008157, -2.085979
149330529.600385, 0.001251, -0.000676, 0.000269, 0.016000, -0.016000, -1.040000, -10.745759, -20.530039, -50.900314, -3.126059, -0.008295, -2.086250
149330529.601432, -0.004552, -0.001592, 0.003323, -0.000000, -0.016000, -1.040000, -10.745487, -20.528910, -50.855583, -3.126110, -0.008112, -2.085943
149330529.602505, -0.001803, -0.002508, 0.000574, -0.000000, -0.016000, -1.040000, -10.784745, -20.547737, -50.842121, -3.126132, -0.007923, -2.085636
149330529.603455, -0.003329, -0.004035, -0.001258, 0.016000, 0.000000, -1.056000, -10.816152, -20.562799, -50.831348, -3.126472, -0.008030, -2.085590
149330529.604511, -0.000886, -0.002202, -0.001563, 0.016000, 0.000000, -1.056000, -10.841277, -20.574848, -50.822731, -3.126783, -0.008150, -2.085553
149330529.605534, -0.002413, 0.000547, -0.000036, -0.000000, -0.016000, -1.024000, -10.801377, -20.466217, -50.839439, -3.126792, -0.007993, -2.085302
149330529.606568, -0.002107, -0.000675, 0.000575, -0.000000, -0.016000, -1.024000, -10.769457, -20.379313, -50.852806, -3.126798, -0.007826, -2.085074
149330529.607602, -0.004550, 0.001157, -0.000036, -0.000000, -0.016000, -1.040000, -10.743921, -20.309788, -50.863499, -3.126833, -0.007682, -2.084850
149330529.608644, 0.000642, -0.000064, 0.000880, -0.000000, -0.016000, -1.040000, -10.723493, -20.254169, -50.872055, -3.126815, -0.007527, -2.084647
149330529.609648, -0.004244, 0.000852, 0.002407, 0.016000, 0.000000, -1.024000, -10.707575, -20.328075, -50.833500, -3.127152, -0.007697, -2.084692
149330529.610822, -0.005771, -0.001591, 0.003323, 0.016000, 0.000000, -1.024000, -10.694840, -20.387199, -50.802654, -3.127506, -0.007836, -2.084715
149330529.611763, 0.001865, -0.000980, 0.000269, -0.000000, -0.016000, -1.040000, -10.684653, -20.434500, -50.777981, -3.127465, -0.007671, -2.084399
149330529.612758, 0.005224, -0.000064, 0.001796, -0.000000, -0.016000, -1.040000, -10.716532, -20.472168, -50.757416, -3.127390, -0.007516, -2.084114
149330529.613765, -0.003328, -0.000980, 0.001185, -0.000000, -0.016000, -1.040000, -10.742035, -20.502302, -50.740963, -3.127400, -0.007356, -2.083835
149330529.614801, -0.003327, 0.001768, -0.000343, -0.000000, -0.016000, -1.040000, -10.762437, -20.526409, -50.727802, -3.127411, -0.007227, -2.083553
149330529.615823, 0.001559, 0.000547, 0.001184, 0.016000, -0.016000, -1.040000, -10.777612, -20.486752, -50.786041, -3.127373, -0.007395, -2.083923
149330529.616907, 0.000032, 0.000241, -0.000648, 0.016000, -0.016000, -1.040000, -10.789751, -20.455025, -50.832634, -3.127351, -0.007558, -2.084291
149330529.617876, -0.000273, -0.000064, 0.000879, -0.000000, -0.016000, -1.024000, -10.799463, -20.429644, -50.869907, -3.127326, -0.007406, -2.084088
149330529.618944, -0.000273, 0.000546, 0.001795, -0.000000, -0.016000, -1.024000, -10.768436, -20.448679, -50.831669, -3.127303, -0.007263, -2.083867
149330529.620577, 0.004613, 0.000241, -0.000037, -0.000000, -0.016000, -1.040000, -10.743614, -20.463907, -50.801079, -3.127208, -0.007122, -2.083599
149330529.621411, 0.001253, 0.001768, -0.001564, -0.000000, -0.016000, -1.040000, -10.723757, -20.476089, -50.776608, -3.127179, -0.006994, -2.083304
149330529.622217, -0.004549, 0.003295, -0.000954, 0.016000, -0.016000, -1.024000, -10.726314, -20.525686, -50.825943, -3.127192, -0.007193, -2.083620
149330529.623097, -0.001800, -0.000065, -0.000953, 0.016000, -0.016000, -1.024000, -10.728359, -20.565363, -50.865414, -3.127184, -0.007361, -2.083912
149330529.624115, -0.004243, -0.000981, -0.000037, -0.000000, -0.016000, -1.040000, -10.729996, -20.597105, -50.896988, -3.127208, -0.007204, -2.083577
149330529.625122, -0.001800, -0.000676, 0.000574, -0.000000, -0.016000, -1.040000, -10.731305, -20.622498, -50.922249, -3.127207, -0.007053, -2.083245
149330529.626147, 0.000338, -0.003119, -0.001564, 0.016000, -0.016000, -1.056000, -10.693683, -20.543846, -50.896652, -3.127190, -0.007184, -2.083493
149330529.627178, -0.004854, -0.005256, 0.001185, 0.016000, -0.016000, -1.056000, -10.663585, -20.480927, -50.876175, -3.127225, -0.007290, -2.083766
149330529.628215, -0.004853, -0.001591, 0.000268, 0.016000, -0.016000, -1.040000, -10.639506, -20.430590, -50.859795, -3.127255, -0.007436, -2.084044
149330529.629220, -0.005769, -0.001896, -0.003091, 0.016000, -0.016000, -1.040000, -10.638856, -20.390619, -50.915382, -3.127292, -0.007576, -2.084302
149330529.630259, -0.006074, -0.002201, -0.002175, 0.016000, -0.016000, -1.040000, -10.638336, -20.358643, -50.959854, -3.127334, -0.007710, -2.084577
149330529.631326, -0.004546, 0.000853, -0.000647, 0.016000, -0.016000, -1.040000, -10.637920, -20.333061, -50.995430, -3.127360, -0.007873, -2.084874
149330529.632351, -0.002102, -0.000980, 0.001796, 0.016000, -0.016000, -1.040000, -10.716752, -20.411261, -51.045834, -3.127359, -0.008013, -2.085216
149330529.633349, 0.000647, -0.002201, 0.003628, 0.016000, -0.016000, -1.024000, -10.779818, -20.473820, -51.086159, -3.127326, -0.008143, -2.085604
149330529.634362, -0.002713, -0.000063, 0.002711, 0.016000, -0.016000, -1.024000, -10.830270, -20.523869, -51.118416, -3.127327, -0.008292, -2.085992
149330529.635408, -0.004850, -0.000979, 0.000268, -0.000000, -0.032000, -1.040000, -10.870632, -20.563908, -51.144222, -3.127047, -0.008117, -2.086094
149330529.636441, -0.010042, 0.002991, 0.001795, -0.000000, -0.032000, -1.040000, -10.904196, -20.516577, -51.118355, -3.126823, -0.007986, -2.086258
149330529.637482, -0.003933, 0.000242, 0.000268, -0.000000, -0.016000, -1.040000, -10.931046, -20.478712, -51.097660, -3.126852, -0.007829, -2.086088
149330529.638488, 0.001260, -0.000369, -0.003397, -0.000000, -0.016000, -1.040000, -10.952527, -20.448421, -51.081104, -3.126827, -0.007669, -2.085914
149330529.639561, 0.000038, -0.000063, -0.002786, 0.048000, 0.016000, -1.040000, -10.928834, -20.404840, -51.114639, -3.127447, -0.008425, -2.086776
149330529.640677, -0.005765, -0.000979, -0.001870, 0.048000, 0.016000, -1.040000, -10.909880, -20.369976, -51.141468, -3.128116, -0.009155, -2.087632
149330529.641705, 0.000649, -0.000369, 0.001795, -0.000000, -0.016000, -1.040000, -10.894716, -20.342085, -51.162930, -3.128072, -0.008969, -2.087481
149330529.642648, 0.001260, 0.001769, 0.000574, -0.000000, -0.016000, -1.040000, -10.923293, -20.378672, -51.133541, -3.128024, -0.008805, -2.087326
149330529.643866, -0.003626, 0.001158, 0.000268, 0.016000, -0.016000, -1.040000, -10.946155, -20.407942, -51.110031, -3.128032, -0.008951, -2.087780
149330529.644892, -0.002099, -0.000674, -0.000037, 0.016000, -0.016000, -1.040000, -10.964444, -20.431356, -51.091221, -3.128018, -0.009073, -2.088224
149330529.645717, -0.005153, -0.000674, 0.000879, -0.000000, -0.016000, -1.040000, -10.979075, -20.450089, -51.076176, -3.128025, -0.008886, -2.088068
149330529.646768, 0.003399, -0.001896, 0.000879, -0.000000, -0.016000, -1.040000, -10.990909, -20.544052, -51.041550, -3.127954, -0.008689, -2.087885
149330529.647800, -0.000877, -0.000063, -0.001259, 0.016000, -0.016000, -1.024000, -11.000375, -20.619223, -51.013851, -3.127925, -0.008828, -2.088272
149330529.648817, -0.001488, 0.000548, 0.002711, 0.016000, -0.016000, -1.024000, -11.007948, -20.679359, -50.991692, -3.127901, -0.008969, -2.088669
149330529.649840, -0.002709, 0.001769, 0.000573, 0.032000, -0.016000, -1.056000, -10.975507, -20.588951, -50.927937, -3.127909, -0.009414, -2.089588
149330529.650894, 0.000345, 0.003601, -0.001259, 0.032000, -0.016000, -1.056000, -10.949554, -20.516624, -50.876934, -3.127885, -0.009869, -2.090484
149330529.651894, 0.004010, -0.001285, -0.001564, -0.000000, -0.016000, -1.040000, -10.928792, -20.458763, -50.836132, -3.127814, -0.009659, -2.090216
149330529.652932, -0.002404, 0.002990, -0.001564, -0.000000, -0.016000, -1.040000, -10.912778, -20.491322, -50.757866, -3.127808, -0.009497, -2.089926
149330529.653984, -0.004542, 0.000852, -0.001564, -0.000000, -0.016000, -1.040000, -10.899966, -20.517368, -50.695255, -3.127824, -0.009316, -2.089621
149330529.654988, 0.001262, 0.001158, -0.000037, -0.000000, -0.016000, -1.040000, -10.889717, -20.538206, -50.645164, -3.127781, -0.009141, -2.089319
149330529.656011, -0.001182, 0.000547, -0.002175, -0.000000, 0.048000, -1.040000, -10.920144, -20.555088, -50.673374, -3.128998, -0.009007, -2.087832
149330529.657052, -0.003320, -0.002202, -0.000953, 0.048000, 0.000000, -1.040000, -10.944486, -20.568594, -50.695942, -3.129304, -0.009719, -2.088945
149330529.658099, -0.005152, -0.000675, 0.000879, 0.048000, 0.000000, -1.040000, -10.963959, -20.579399, -50.713993, -3.129622, -0.010434, -2.090063
149330529.659107, -0.003014, 0.002074, -0.000037, -0.000000, 0.000000, -1.072000, -10.979537, -20.588043, -50.728436, -3.129894, -0.010249, -2.089475
149330529.660159, -0.002403, -0.000980, -0.002786, -0.000000, 0.000000, -1.072000, -10.932382, -20.496336, -50.740665, -3.130156, -0.010037, -2.088871
149330529.661178, 0.000041, 0.000241, 0.002406, -0.000000, -0.016000, -1.056000, -10.894657, -20.422970, -50.750450, -3.130082, -0.009838, -2.088659
149330529.662226, -0.001792, -0.003118, -0.000953, -0.000000, -0.016000, -1.056000, -10.864478, -20.364277, -50.758278, -3.130029, -0.009609, -2.088417
149330529.663257, -0.000875, 0.000242, -0.000342, 0.016000, -0.016000, -1.024000, -10.859839, -20.435894, -50.764797, -3.129958, -0.009733, -2.088773
149330529.664290, -0.003013, -0.000980, -0.000648, 0.016000, -0.016000, -1.024000, -10.856129, -20.493187, -50.770016, -3.129909, -0.009841, -2.089091
149330529.665306, -0.002707, -0.000980, -0.002175, 0.016000, -0.016000, -1.040000, -10.853160, -20.539022, -50.774189, -3.129863, -0.009943, -2.089350
149330529.666321, 0.000652, 0.000547, -0.000647, 0.016000, -0.016000, -1.040000, -10.891365, -20.555614, -50.753559, -3.129785, -0.010058, -2.089640
149330529.667373, 0.000347, -0.000369, 0.000269, -0.000000, -0.016000, -1.024000, -10.921929, -20.568888, -50.737053, -3.129706, -0.009852, -2.089360
149330529.668416, 0.004317, -0.001896, -0.000037, -0.000000, -0.016000, -1.024000, -10.946381, -20.579506, -50.723850, -3.129589, -0.009636, -2.089096
149330529.669404, 0.001873, 0.002380, -0.000342, -0.000000, -0.016000, -1.040000, -10.904582, -20.568867, -50.783516, -3.129504, -0.009466, -2.088801
149330529.670471, -0.001486, 0.002074, -0.004923, -0.000000, -0.016000, -1.040000, -10.871143, -20.560354, -50.831245, -3.129456, -0.009298, -2.088443
149330529.671479, 0.000957, 0.002074, -0.000952, 0.016000, -0.016000, -1.056000, -10.844393, -20.553545, -50.869431, -3.129387, -0.009436, -2.088703
149330529.672534, 0.004011, 0.001158, 0.002407, 0.016000, -0.016000, -1.056000, -10.822992, -20.548098, -50.899979, -3.129287, -0.009563, -2.088978
149330529.673557, 0.001873, -0.000064, 0.001185, 0.016000, -0.016000, -1.024000, -10.766991, -20.602856, -50.856472, -3.129203, -0.009683, -2.089196
149330529.674571, -0.000265, -0.002202, -0.000952, 0.016000, -0.016000, -1.024000, -10.722189, -20.646662, -50.821667, -3.129141, -0.009780, -2.089334
149330529.675598, -0.004541, -0.002202, -0.001563, 0.016000, -0.016000, -1.040000, -10.686348, -20.681707, -50.793823, -3.129129, -0.009870, -2.089406
149330529.676614, -0.003624, -0.002201, -0.001258, 0.016000, -0.016000, -1.040000, -10.757448, -20.669889, -50.792301, -3.129107, -0.009959, -2.089539
149330529.677651, -0.003624, -0.001896, -0.000036, 0.016000, -0.032000, -1.040000, -10.814328, -20.660435, -50.791080, -3.128780, -0.010053, -2.090086
