Using settings file RTIMULib.ini
IMU Name: L3GD20 + LSM303DLHC
IMU Init Succeeded
Recommended Poll Interval: 4mS

Time, gyroX, gyroY, gyroZ, accelX, accelY, accelZ, magX, magY, magZ, phi, theta, psi

149372600.805348, -0.010548, 0.004393, -0.010026, 0.014889, 0.031033, -0.997673, -4.446281, -0.827069, -10.896091, 3.110497, -0.014915, -2.893864

149372600.806181, -0.007635, 0.002208, -0.006526, 0.014889, 0.031033, -0.982557, -8.003306, -1.488724, -19.612963, 3.110425, -0.014936, -2.893792

149372600.807130, -0.005082, -0.002623, -0.007585, 0.014889, 0.031033, -0.982557, -10.848927, -2.018048, -26.586460, 3.110370, -0.014913, -2.893709

149372600.808150, -0.002882, -0.002867, -0.005631, 0.029778, 0.015516, -0.967441, -13.084351, -2.421099, -32.095287, 3.110637, -0.015205, -2.894493

149372600.809195, -0.007007, 0.001978, -0.004615, 0.029778, 0.015516, -0.967441, -14.872689, -2.743540, -36.502346, 3.110857, -0.015542, -2.895279

149372600.810231, -0.003272, -0.000755, -0.004817, 0.044666, 0.031033, -0.982557, -16.303360, -3.001493, -40.027996, 3.110802, -0.016130, -2.895530

149372600.811229, -0.006193, 0.002849, -0.005613, 0.044666, 0.031033, -0.982557, -17.447897, -3.207855, -42.848515, 3.110720, -0.016741, -2.895772

149372600.812267, -0.007856, -0.000500, -0.008485, 0.044666, 0.015516, -0.967441, -18.342991, -3.311720, -45.128254, 3.110921, -0.017328, -2.896693

149372600.813280, -0.010083, 0.000707, -0.006213, 0.044666, 0.015516, -0.967441, -19.059065, -3.394812, -46.952045, 3.111098, -0.017917, -2.897661

149372600.814321, -0.011067, -0.004092, -0.007278, 0.044666, 0.015516, -0.982557, -19.631926, -3.461286, -48.411079, 3.111263, -0.018430, -2.898634

149372600.815351, -0.009937, -0.000119, -0.009816, 0.044666, 0.015516, -0.982557, -20.069677, -3.534873, -49.578304, 3.111438, -0.018973, -2.899565

149372600.816404, -0.006140, 0.001677, -0.006918, 0.014889, 0.031033, -0.997673, -20.419878, -3.593743, -50.512085, 3.111355, -0.018908, -2.899550

149372600.817430, -0.004814, 0.001642, -0.006175, 0.014889, 0.031033, -0.997673, -20.700039, -3.640838, -51.259109, 3.111288, -0.018843, -2.899544

149372600.818472, -0.003816, -0.001084, -0.004550, 0.044666, 0.031033, -0.982557, -20.944704, -3.698923, -51.880054, 3.111218, -0.019361, -2.899832

149372600.819466, -0.007025, -0.001061, -0.005949, 0.044666, 0.031033, -0.982557, -21.140436, -3.745391, -52.376808, 3.111121, -0.019870, -2.900094

149372600.820536, -0.009269, 0.001354, -0.007917, 0.044666, 0.046549, -0.997673, -21.297022, -3.782565, -52.774212, 3.110703, -0.020380, -2.899681

149372600.821532, -0.010868, -0.000469, -0.008946, 0.029778, 0.046549, -0.997673, -21.360682, -3.832713, -53.045486, 3.110283, -0.020565, -2.899069

149372600.822562, -0.013629, -0.000459, -0.004273, 0.029778, 0.046549, -0.997673, -21.411610, -3.872831, -53.262508, 3.109841, -0.020748, -2.898486

149372600.823586, -0.006764, 0.003139, -0.004781, 0.029778, 0.015516, -0.997673, -21.452351, -3.904925, -53.436123, 3.110092, -0.020966, -2.899242

149372600.824614, -0.009612, 0.002774, -0.005876, 0.029778, 0.015516, -0.997673, -21.484943, -3.930601, -53.575016, 3.110310, -0.021176, -2.899956

149372600.825655, -0.002831, -0.000574, -0.004257, 0.029778, 0.031033, -1.012789, -21.593164, -3.930733, -53.826077, 3.110293, -0.021333, -2.900019

149372600.826692, -0.008453, -0.000861, -0.005065, 0.029778, 0.031033, -1.012789, -21.679741, -3.930839, -54.026924, 3.110219, -0.021483, -2.900086

149372600.827714, -0.010368, 0.002745, -0.003762, 0.014889, 0.031033, -0.982557, -21.749002, -3.930924, -54.187603, 3.110110, -0.021383, -2.899980

149372600.828757, -0.006860, -0.002096, -0.004879, 0.014889, 0.031033, -0.982557, -21.804411, -3.910583, -54.269497, 3.110037, -0.021235, -2.899891

149372600.829826, -0.005221, -0.000557, -0.003879, 0.014889, 0.031033, -0.982557, -21.848738, -3.894311, -54.335011, 3.109981, -0.021107, -2.899834

149372600.830796, -0.010194, 0.000351, -0.004994, 0.014889, 0.031033, -0.982557, -21.884199, -3.881293, -54.387421, 3.109884, -0.020989, -2.899788

149372600.831822, 0.001981, -0.002945, -0.002795, 0.029778, 0.031033, -0.982557, -21.912569, -3.850471, -54.359379, 3.109905, -0.021145, -2.899955

149372600.832854, -0.002247, 0.001303, -0.003634, 0.029778, 0.031033, -0.982557, -21.935265, -3.825813, -54.336945, 3.109883, -0.021340, -2.900134

149372600.833892, -0.007283, 0.000977, -0.004753, 0.029778, 0.031033, -0.982557, -21.953421, -3.806086, -54.318996, 3.109809, -0.021527, -2.900316

149372600.834925, -0.007428, -0.002034, -0.003457, 0.029778, 0.031033, -0.982557, -21.926872, -3.831121, -54.374611, 3.109736, -0.021680, -2.900483

149372600.835969, -0.005777, 0.000700, -0.004580, 0.014889, 0.015516, -0.982557, -21.905634, -3.851150, -54.419102, 3.110000, -0.021561, -2.901172

149372600.837027, -0.001170, -0.000810, -0.004783, 0.014889, 0.015516, -0.982557, -21.888643, -3.867172, -54.454697, 3.110305, -0.021428, -2.901829

149372600.838004, -0.004136, -0.001989, -0.005878, 0.029778, 0.031033, -0.982557, -21.875051, -3.879990, -54.483170, 3.110258, -0.021585, -2.901893

149372600.839074, -0.001657, 0.000146, -0.005455, 0.029778, 0.031033, -0.982557, -21.905251, -3.869836, -54.435978, 3.110234, -0.021758, -2.901969

149372600.840104, 0.000471, -0.003146, -0.005042, 0.014889, 0.046549, -0.967441, -21.929409, -3.861713, -54.398224, 3.109901, -0.021603, -2.901170

149372600.841096, -0.004921, -0.000987, -0.000749, 0.014889, 0.046549, -0.967441, -21.948736, -3.855215, -54.368019, 3.109523, -0.021474, -2.900441

149372600.842144, -0.006312, 0.000828, -0.003126, 0.029778, 0.031033, -0.982557, -21.964197, -3.870425, -54.320534, 3.109467, -0.021658, -2.900584

149372600.843188, -0.006777, 0.000811, -0.004555, 0.029778, 0.031033, -0.982557, -21.976566, -3.882592, -54.282543, 3.109407, -0.021837, -2.900703

149372600.844240, 0.000840, -0.000104, -0.004160, 0.029778, 0.046549, -0.967441, -21.986462, -3.892326, -54.252151, 3.109099, -0.022017, -2.900116

149372600.845261, -0.006652, 0.001992, -0.005567, 0.029778, 0.046549, -0.967441, -21.932770, -3.838889, -54.297813, 3.108722, -0.022213, -2.899556

149372600.846286, -0.002027, -0.003133, -0.004852, 0.029778, 0.046549, -0.982557, -21.889816, -3.796139, -54.334343, 3.108413, -0.022344, -2.899065

149372600.847288, -0.000490, -0.002170, -0.003853, 0.029778, 0.046549, -0.982557, -21.855453, -3.761939, -54.363564, 3.108126, -0.022483, -2.898614

149372600.848327, -0.004366, 0.000267, -0.003174, 0.029778, 0.046549, -1.012789, -21.827963, -3.734579, -54.386940, 3.107832, -0.022624, -2.898241

149372600.849382, -0.001284, 0.001458, -0.005798, -0.000000, 0.062065, -1.012789, -21.805971, -3.712692, -54.405643, 3.107254, -0.022204, -2.896801

149372600.850380, -0.002154, 0.001726, -0.000593, -0.000000, 0.062065, -1.012789, -21.788378, -3.695181, -54.420605, 3.106681, -0.021794, -2.895454

149372600.851422, -0.002765, 0.000199, -0.004258, 0.029778, 0.031033, -0.982557, -21.774302, -3.681173, -54.432575, 3.106717, -0.021965, -2.895800

149372600.852472, -0.006893, -0.003094, -0.004767, 0.029778, 0.031033, -0.982557, -21.804113, -3.731191, -54.442150, 3.106709, -0.022098, -2.896100

149372600.853503, -0.004356, 0.003250, -0.001078, 0.029778, 0.031033, -0.967441, -21.827963, -3.771205, -54.449810, 3.106720, -0.022304, -2.896384

149372600.854504, -0.002769, 0.003181, -0.003746, 0.029778, 0.031033, -0.967441, -21.847044, -3.803216, -54.455940, 3.106747, -0.022503, -2.896616

149372600.855543, 0.003568, -0.000773, -0.003967, 0.014889, 0.031033, -0.982557, -21.841772, -3.788009, -54.507488, 3.106848, -0.022347, -2.896708

149372600.856593, -0.005178, -0.002251, -0.003883, 0.014889, 0.031033, -0.982557, -21.837553, -3.775844, -54.548729, 3.106858, -0.022179, -2.896808

149372600.857595, 0.000014, 0.002281, -0.002605, 0.014889, 0.031033, -0.982557, -21.834179, -3.766111, -54.581722, 3.106921, -0.022060, -2.896924

149372600.858631, -0.002378, -0.001953, 0.000141, 0.014889, 0.031033, -0.982557, -21.852016, -3.819550, -54.584793, 3.106960, -0.021902, -2.897027

149372600.859685, -0.003225, 0.003171, -0.001656, 0.014889, 0.031033, -0.967441, -21.866285, -3.862300, -54.587250, 3.106977, -0.021804, -2.897054

149372600.860714, -0.004652, 0.000114, -0.001323, 0.014889, 0.031033, -0.967441, -21.877701, -3.896501, -54.589214, 3.106981, -0.021677, -2.897060

149372600.861728, 0.000529, -0.001084, -0.002192, 0.014889, 0.031033, -0.967441, -21.886833, -3.923862, -54.590786, 3.107036, -0.021540, -2.897037

149372600.862769, -0.003668, 0.001032, -0.003342, 0.014889, 0.031033, -0.967441, -21.873602, -3.966158, -54.522072, 3.107048, -0.021426, -2.896965

149372600.863812, 0.000595, -0.003176, -0.001776, 0.029778, 0.015516, -0.997673, -21.863018, -3.999995, -54.467098, 3.107430, -0.021569, -2.897767

149372600.864810, -0.004501, -0.000418, -0.002337, 0.029778, 0.015516, -0.997673, -21.854551, -4.027065, -54.423119, 3.107754, -0.021737, -2.898524

149372600.865840, -0.007396, -0.002502, -0.004680, 0.014889, 0.031033, -0.982557, -21.888849, -3.987496, -54.457909, 3.107724, -0.021578, -2.898417

149372600.866895, -0.004549, -0.001553, -0.002189, 0.014889, 0.031033, -0.982557, -21.916288, -3.955841, -54.485741, 3.107722, -0.021433, -2.898367

149372600.867931, -0.004155, -0.001221, -0.000947, 0.029778, 0.046549, -0.967441, -21.938240, -3.930517, -54.508007, 3.107398, -0.021610, -2.897812

149372600.868941, -0.006160, -0.000298, -0.000329, 0.029778, 0.046549, -0.967441, -21.935265, -3.951075, -54.572468, 3.107062, -0.021793, -2.897255

149372600.869981, -0.002741, -0.001787, 0.001173, 0.029778, 0.015516, -0.982557, -21.932884, -3.967520, -54.624035, 3.107405, -0.021953, -2.898111

149372600.871022, -0.004179, -0.002347, -0.001244, 0.029778, 0.015516, -0.982557, -21.930981, -3.980677, -54.665291, 3.107727, -0.022103, -2.898915

149372600.872022, -0.004390, -0.001102, -0.001816, 0.044666, 0.015516, -1.012789, -21.908920, -3.950386, -54.605000, 3.108044, -0.022540, -2.899856

149372600.873048, -0.001905, -0.001079, 0.000017, 0.044666, 0.015516, -1.012789, -21.891272, -3.926153, -54.556767, 3.108379, -0.022968, -2.900812

149372600.874071, -0.000370, 0.001336, -0.001479, 0.029778, 0.031033, -0.997673, -21.877153, -3.906767, -54.518181, 3.108417, -0.023118, -2.900931

149372600.875112, -0.000960, 0.002504, -0.001149, 0.029778, 0.031033, -0.997673, -21.865858, -3.891258, -54.487312, 3.108448, -0.023277, -2.901062

149372600.876159, -0.003332, 0.001255, -0.003217, 0.029778, 0.046549, -0.982557, -21.918432, -3.878850, -54.462616, 3.108130, -0.023432, -2.900491

149372600.877198, -0.002664, -0.002359, -0.003449, 0.029778, 0.046549, -0.982557, -21.960491, -3.868924, -54.442860, 3.107827, -0.023547, -2.899950

149372600.878250, 0.001578, -0.003506, -0.003974, 0.029778, 0.046549, -0.982557, -21.994139, -3.860984, -54.427055, 3.107572, -0.023647, -2.899427

149372600.879258, -0.001146, 0.000455, -0.002395, 0.014889, 0.031033, -0.952324, -22.000521, -3.854631, -54.437737, 3.107589, -0.023490, -2.899418

149372600.880285, 0.000971, 0.001044, -0.002046, 0.014889, 0.031033, -0.952324, -22.005625, -3.849550, -54.446281, 3.107627, -0.023344, -2.899417

149372600.881321, -0.001441, -0.000772, -0.003498, 0.014889, 0.046549, -0.982557, -22.009708, -3.845484, -54.453117, 3.107342, -0.023175, -2.898743

149372600.882315, -0.000215, -0.000756, -0.004919, 0.014889, 0.046549, -0.982557, -22.033512, -3.821823, -54.435261, 3.107074, -0.023009, -2.898095

149372600.883384, 0.002181, -0.000740, -0.000032, 0.014889, 0.015516, -0.982557, -22.052555, -3.802895, -54.420975, 3.107475, -0.022852, -2.898945

149372600.884383, -0.000854, 0.001967, 0.000866, 0.014889, 0.015516, -0.982557, -22.067789, -3.787752, -54.409546, 3.107836, -0.022725, -2.899801

149372600.885461, -0.004126, -0.002560, -0.000348, 0.029778, 0.031033, -0.982557, -22.018368, -3.816454, -54.423729, 3.107836, -0.022849, -2.900038

149372600.886471, -0.001348, 0.001082, -0.002733, 0.029778, 0.031033, -0.982557, -21.978830, -3.839416, -54.435074, 3.107865, -0.023007, -2.900219

149372600.887495, -0.002216, 0.000461, -0.002077, 0.014889, 0.046549, -0.982557, -21.947201, -3.857785, -54.444149, 3.107567, -0.022858, -2.899519

149372600.888538, -0.001572, -0.002240, -0.001137, 0.014889, 0.046549, -0.982557, -21.921896, -3.872480, -54.451408, 3.107282, -0.022685, -2.898826

149372600.889531, 0.006236, -0.003388, 0.001279, 0.014889, 0.031033, -0.997673, -21.942726, -3.904645, -54.457218, 3.107407, -0.022497, -2.898871

149372600.890560, -0.000474, -0.000925, -0.002336, 0.014889, 0.031033, -0.997673, -21.959391, -3.930377, -54.461864, 3.107464, -0.022336, -2.898861

149372600.891601, -0.002557, -0.002999, -0.000194, 0.014889, 0.015516, -0.982557, -21.972721, -3.950962, -54.465584, 3.107807, -0.022168, -2.899556

149372600.892670, -0.002802, 0.000653, 0.001007, 0.014889, 0.015516, -0.982557, -22.024458, -3.947022, -54.468559, 3.108140, -0.022041, -2.900261

149372600.893688, -0.004836, 0.001536, -0.002603, 0.029778, 0.046549, -0.967441, -22.065847, -3.943870, -54.470940, 3.107801, -0.022233, -2.899669

149372600.894712, -0.003239, 0.000906, -0.003146, 0.029778, 0.046549, -0.967441, -22.098959, -3.941349, -54.472843, 3.107484, -0.022415, -2.899092

149372600.895746, -0.001101, -0.000927, 0.000214, 0.014889, 0.062065, -1.012789, -22.063841, -3.857699, -54.427715, 3.106927, -0.022267, -2.897855

149372600.896748, 0.003407, -0.001207, -0.004575, 0.014889, 0.062065, -1.012789, -22.035746, -3.790779, -54.391613, 3.106424, -0.022117, -2.896644

149372600.897786, -0.003618, 0.000015, -0.003658, 0.044666, 0.015516, -0.967441, -22.013269, -3.737243, -54.362732, 3.106755, -0.022607, -2.897781

149372600.898830, -0.002645, -0.004470, -0.001488, 0.044666, 0.015516, -0.967441, -21.995289, -3.694414, -54.339626, 3.107090, -0.023042, -2.898950

149372600.899895, 0.000700, -0.000489, 0.000337, 0.014889, 0.031033, -0.982557, -22.021976, -3.782600, -54.437763, 3.107156, -0.022880, -2.899082

149372600.900867, -0.000810, -0.001077, 0.000031, 0.014889, 0.031033, -0.982557, -22.043327, -3.853149, -54.516273, 3.107206, -0.022715, -2.899152

149372600.901937, -0.004082, 0.000142, -0.002661, 0.029778, 0.031033, -0.982557, -22.060408, -3.909588, -54.579082, 3.107218, -0.022868, -2.899307

149372600.902925, -0.002202, 0.003428, -0.001708, 0.029778, 0.031033, -0.982557, -22.074072, -3.913923, -54.536034, 3.107252, -0.023049, -2.899470

149372600.903964, 0.000237, -0.005913, 0.001916, 0.029778, 0.031033, -0.982557, -22.085003, -3.917391, -54.501595, 3.107309, -0.023134, -2.899668

149372600.905008, 0.001129, -0.001603, -0.001114, 0.029778, 0.031033, -0.982557, -22.093748, -3.920165, -54.474041, 3.107374, -0.023260, -2.899829

149372600.906056, -0.002184, 0.002019, -0.002885, 0.029778, 0.031033, -0.982557, -22.080208, -3.881568, -54.428673, 3.107403, -0.023420, -2.899998

149372600.907114, -0.003334, -0.000416, -0.002824, 0.029778, 0.062065, -1.012789, -22.069376, -3.850691, -54.392380, 3.106831, -0.023547, -2.898914

149372600.908084, -0.005058, -0.001005, -0.002764, 0.029778, 0.062065, -1.012789, -22.060709, -3.825989, -54.363346, 3.106256, -0.023666, -2.897872

149372600.909108, 0.002822, 0.000810, -0.000613, 0.029778, 0.031033, -0.982557, -22.053776, -3.806227, -54.363441, 3.106359, -0.023807, -2.898160

149372600.910151, 0.000969, -0.000403, -0.002095, 0.029778, 0.031033, -0.982557, -22.048229, -3.790418, -54.363518, 3.106440, -0.023932, -2.898439

149372600.911191, 0.005135, -0.002487, -0.001453, 0.029778, 0.015516, -0.967441, -22.043793, -3.777770, -54.363579, 3.106871, -0.024052, -2.899414

149372600.912236, 0.002635, -0.002136, -0.000526, 0.029778, 0.015516, -0.967441, -22.040243, -3.767652, -54.363628, 3.107269, -0.024173, -2.900385

149372600.913243, 0.002280, -0.000297, 0.000083, 0.029778, 0.031033, -0.982557, -22.078476, -3.861599, -54.456966, 3.107345, -0.024292, -2.900589

149372600.914280, -0.001655, -0.001188, 0.000381, 0.029778, 0.031033, -0.982557, -22.109062, -3.936756, -54.531635, 3.107382, -0.024400, -2.900735

149372600.915329, -0.004012, 0.000332, -0.002916, 0.014889, 0.015516, -0.982557, -22.133532, -3.996882, -54.591370, 3.107711, -0.024223, -2.901353

149372600.916319, -0.004227, -0.001768, -0.003453, 0.014889, 0.015516, -0.982557, -22.070961, -3.963350, -54.522537, 3.108034, -0.024029, -2.901973

149372600.917371, -0.004138, -0.005617, -0.000390, 0.014889, 0.031033, -0.982557, -22.020905, -3.936524, -54.467472, 3.108030, -0.023794, -2.901911

149372600.918404, -0.004051, 0.000182, -0.002176, 0.014889, 0.031033, -0.982557, -21.980860, -3.915063, -54.423420, 3.108028, -0.023622, -2.901840

149372600.919449, -0.000377, -0.000719, -0.001532, 0.029778, 0.031033, -0.982557, -21.948824, -3.857079, -54.388176, 3.108063, -0.023747, -2.901978

149372600.920453, -0.001266, 0.001389, -0.001500, 0.029778, 0.031033, -0.982557, -21.923195, -3.810691, -54.359982, 3.108089, -0.023891, -2.902147

149372600.921486, -0.003931, 0.001659, -0.001767, 0.014889, 0.031033, -0.967441, -21.902693, -3.773581, -54.337425, 3.108078, -0.023737, -2.902159

149372600.922540, 0.003627, -0.002562, -0.003524, 0.014889, 0.031033, -0.967441, -21.927362, -3.866342, -54.342705, 3.108143, -0.023542, -2.902081

149372600.923575, -0.000934, -0.003106, -0.000161, -0.000000, 0.015516, -0.982557, -21.947100, -3.940550, -54.346931, 3.108493, -0.023044, -2.902570

149372600.924579, -0.004503, -0.002742, -0.000457, -0.000000, 0.015516, -0.982557, -21.962889, -3.999917, -54.350311, 3.108799, -0.022560, -2.902998

149372600.925618, -0.003212, -0.000292, 0.000151, 0.029778, 0.046549, -0.982557, -21.975519, -4.047411, -54.353016, 3.108478, -0.022716, -2.902307

149372600.926665, -0.003443, 0.003003, -0.000749, 0.029778, 0.046549, -0.982557, -21.985624, -4.044590, -54.308529, 3.108161, -0.022902, -2.901626

149372600.927667, 0.002310, -0.002143, -0.001630, 0.029778, 0.031033, -0.952324, -21.993708, -4.042332, -54.272942, 3.108200, -0.023047, -2.901599

149372600.928694, 0.002262, -0.000005, 0.000497, 0.029778, 0.031033, -0.952324, -22.000175, -4.040526, -54.244473, 3.108239, -0.023210, -2.901595

149372600.929734, -0.002570, 0.001490, -0.001906, 0.029778, 0.015516, -0.982557, -22.025887, -3.957449, -54.268345, 3.108561, -0.023373, -2.902359

149372600.930772, -0.006403, 0.000861, -0.003360, 0.029778, 0.015516, -0.982557, -22.046455, -3.890987, -54.287441, 3.108837, -0.023526, -2.903150

149372600.931790, -0.002082, -0.001250, -0.003888, 0.014889, 0.046549, -0.952324, -22.062910, -3.837818, -54.302719, 3.108491, -0.023360, -2.902362

149372600.932832, -0.002038, -0.003018, -0.000218, 0.014889, 0.046549, -0.952324, -22.076073, -3.815690, -54.384914, 3.108153, -0.023180, -2.901644

149372600.933865, -0.002038, -0.001185, 0.001004, 0.014889, 0.046549, -1.012789, -22.086603, -3.797988, -54.450668, 3.107880, -0.023002, -2.901084

149372600.934873, 0.000098, 0.003325, 0.003076, 0.029778, 0.046549, -0.997673, -22.095028, -3.783827, -54.503273, 3.107625, -0.023174, -2.900713

149372600.935901, 0.001292, 0.001461, -0.001773, 0.029778, 0.046549, -0.997673, -22.060696, -3.854130, -54.452061, 3.107386, -0.023324, -2.900241

149372600.936931, -0.002324, 0.000533, -0.001138, 0.029778, 0.062065, -0.997673, -22.033230, -3.910373, -54.411091, 3.106808, -0.023474, -2.899081

149372600.937969, 0.000416, 0.003512, 0.001876, 0.029778, 0.062065, -0.997673, -22.011257, -3.955367, -54.378315, 3.106269, -0.023652, -2.897935

149372600.939032, -0.000489, 0.001644, -0.002648, 0.014889, 0.031033, -0.982557, -21.993679, -3.991362, -54.352093, 3.106339, -0.023498, -2.897879

149372600.940027, 0.001016, 0.000413, -0.000798, 0.014889, 0.031033, -0.982557, -21.979616, -3.958934, -54.424412, 3.106422, -0.023334, -2.897866

149372600.941104, -0.000500, -0.000194, 0.001012, 0.014889, 0.031033, -0.967441, -21.968367, -3.932992, -54.482265, 3.106479, -0.023173, -2.897871

149372600.942114, 0.003696, -0.001984, 0.000393, 0.014889, 0.031033, -0.967441, -21.959366, -3.912237, -54.528549, 3.106577, -0.022998, -2.897883

149372600.943140, 0.003020, -0.000148, 0.002179, 0.014889, 0.031033, -0.982557, -22.054848, -3.916042, -54.565578, 3.106677, -0.022841, -2.897948

149372600.944174, -0.001229, -0.000444, -0.001156, 0.014889, 0.031033, -0.982557, -22.131233, -3.919086, -54.595200, 3.106731, -0.022682, -2.897990

149372600.945173, -0.004193, -0.000733, 0.000662, 0.044666, 0.046549, -0.967441, -22.192341, -3.921521, -54.618896, 3.106429, -0.023145, -2.897688

149372600.946248, 0.001875, -0.000718, 0.000648, 0.044666, 0.046549, -0.967441, -22.179619, -3.903061, -54.614532, 3.106194, -0.023598, -2.897405

149372600.947242, 0.003629, -0.000404, 0.003924, 0.014889, 0.031033, -0.982557, -22.169441, -3.888294, -54.611038, 3.106308, -0.023427, -2.897540

149372600.948319, -0.000334, 0.000203, 0.002645, 0.014889, 0.031033, -0.982557, -22.161299, -3.876479, -54.608246, 3.106379, -0.023265, -2.897671

149372600.949329, -0.001523, 0.001693, -0.000700, 0.029778, 0.031033, -0.967441, -22.154785, -3.867028, -54.606010, 3.106426, -0.023431, -2.897910

149372600.950356, -0.000594, 0.000462, -0.000386, 0.029778, 0.031033, -0.967441, -22.129038, -3.941099, -54.534248, 3.106481, -0.023582, -2.898087

149372600.951393, -0.000880, -0.000445, -0.000378, 0.014889, 0.031033, -0.982557, -22.108438, -4.000356, -54.476841, 3.106543, -0.023409, -2.898065

149372600.952385, 0.001231, -0.003127, 0.000228, 0.014889, 0.031033, -0.982557, -22.091959, -4.047762, -54.430916, 3.106624, -0.023214, -2.898010

149372600.953418, -0.003280, -0.005453, -0.001571, 0.014889, 0.031033, -0.967441, -22.099312, -3.963238, -54.417500, 3.106648, -0.023001, -2.897990

149372600.954462, -0.005902, -0.002049, 0.002349, 0.014889, 0.031033, -0.967441, -22.105194, -3.895618, -54.406765, 3.106646, -0.022830, -2.898067

149372600.955529, 0.000800, 0.000087, -0.001886, 0.014889, 0.015516, -0.967441, -22.109901, -3.841522, -54.398178, 3.107035, -0.022689, -2.898867

149372600.956551, 0.001083, -0.000214, -0.002145, 0.014889, 0.015516, -0.967441, -22.072594, -3.879879, -54.367985, 3.107419, -0.022547, -2.899611

149372600.957575, -0.000734, -0.002302, 0.000591, 0.014889, 0.031033, -0.967441, -22.042747, -3.910563, -54.343830, 3.107453, -0.022381, -2.899613

149372600.958609, 0.003168, -0.001058, 0.001774, 0.014889, 0.031033, -0.967441, -22.018871, -3.935112, -54.324505, 3.107527, -0.022231, -2.899602

149372600.959611, 0.000112, -0.003128, -0.000954, 0.014889, 0.031033, -0.997673, -21.999769, -3.852709, -54.332371, 3.107588, -0.022054, -2.899668

149372600.960647, -0.004077, -0.000073, -0.000934, 0.014889, 0.031033, -0.997673, -21.984488, -3.786787, -54.338661, 3.107605, -0.021910, -2.899782

149372600.961689, 0.002948, 0.001149, 0.001815, 0.014889, 0.093098, -0.967441, -21.972263, -3.734050, -54.343697, 3.106389, -0.021871, -2.897171

149372600.962748, -0.000403, -0.001566, 0.000880, 0.014889, 0.062065, -0.967441, -21.962484, -3.691859, -54.347725, 3.105804, -0.021742, -2.895976

149372600.963730, 0.001101, -0.000337, -0.000634, 0.014889, 0.062065, -0.967441, -21.954660, -3.719332, -54.397594, 3.105246, -0.021627, -2.894763

149372600.964757, -0.001913, -0.000629, -0.001218, 0.029778, 0.031033, -0.982557, -21.948400, -3.741310, -54.437489, 3.105320, -0.021794, -2.895138

149372600.965822, 0.000221, 0.001178, 0.000003, 0.029778, 0.031033, -0.982557, -21.943394, -3.758892, -54.469406, 3.105415, -0.021977, -2.895501

149372600.966819, 0.000515, -0.000940, 0.000003, 0.029778, 0.031033, -0.997673, -21.980461, -3.711734, -54.448292, 3.105520, -0.022126, -2.895920

149372600.967856, -0.001290, -0.000621, 0.000601, 0.029778, 0.031033, -0.997673, -22.010115, -3.674007, -54.431400, 3.105605, -0.022275, -2.896373

149372600.968899, -0.001562, 0.002382, -0.002402, 0.029778, 0.046549, -0.997673, -22.033836, -3.643825, -54.417885, 3.105376, -0.022450, -2.896142

149372600.969954, -0.000333, 0.002332, -0.002052, 0.029778, 0.046549, -0.997673, -22.032278, -3.701313, -54.430397, 3.105165, -0.022622, -2.895872

149372600.970977, -0.001223, -0.002202, -0.002607, 0.014889, 0.031033, -0.982557, -22.031031, -3.747303, -54.440407, 3.105250, -0.022450, -2.896068

149372600.972003, 0.001793, -0.002455, -0.001356, 0.014889, 0.031033, -0.982557, -22.030033, -3.784095, -54.448418, 3.105364, -0.022279, -2.896240

149372600.973015, 0.000559, 0.002082, -0.000430, 0.014889, 0.015516, -0.967441, -22.049772, -3.772712, -54.524796, 3.105776, -0.022171, -2.897137

149372600.974055, 0.001145, -0.000952, -0.001318, 0.014889, 0.015516, -0.967441, -22.065563, -3.763606, -54.585899, 3.106186, -0.022033, -2.898018

149372600.975103, -0.001869, -0.000633, 0.000204, 0.029778, 0.031033, -0.982557, -22.078196, -3.756321, -54.634781, 3.106242, -0.022193, -2.898351

149372600.976128, 0.000563, 0.002072, 0.000200, 0.029778, 0.031033, -0.982557, -22.088303, -3.750493, -54.673885, 3.106322, -0.022376, -2.898682

149372600.977133, -0.001243, 0.002626, 0.001093, 0.014889, 0.031033, -0.982557, -22.096388, -3.807055, -54.681847, 3.106385, -0.022258, -2.898814

149372600.978193, 0.006557, -0.000718, 0.002266, 0.014889, 0.031033, -0.982557, -22.102856, -3.852305, -54.688213, 3.106526, -0.022110, -2.898921

149372600.979181, -0.002252, -0.000105, 0.000424, 0.014889, 0.031033, -0.967441, -22.108030, -3.888505, -54.693310, 3.106564, -0.021974, -2.898958

149372600.980248, -0.004298, 0.001990, 0.001312, 0.014889, 0.031033, -0.967441, -22.112169, -3.876648, -54.627415, 3.106579, -0.021864, -2.899015

149372600.981284, 0.000876, -0.000145, 0.001285, 0.014889, 0.031033, -0.982557, -22.115480, -3.867163, -54.574699, 3.106657, -0.021730, -2.899100

149372600.982316, 0.004445, -0.001039, 0.000959, 0.014889, 0.031033, -0.982557, -22.118130, -3.859575, -54.532524, 3.106769, -0.021588, -2.899189

149372600.983342, -0.000133, -0.000120, 0.000938, 0.044666, 0.031033, -0.967441, -22.099712, -3.873912, -54.545433, 3.106819, -0.022078, -2.899550

149372600.984361, 0.005252, 0.000481, 0.003909, 0.044666, 0.031033, -0.967441, -22.084978, -3.885382, -54.555759, 3.106922, -0.022565, -2.899922

149372600.985367, -0.000839, -0.003417, 0.000836, 0.014889, 0.031033, -0.982557, -22.073191, -3.894558, -54.564022, 3.106976, -0.022384, -2.899954

149372600.986399, -0.002316, -0.000953, 0.002912, 0.014889, 0.031033, -0.982557, -22.104834, -3.901899, -54.547310, 3.107014, -0.022231, -2.900008

149372600.987497, -0.002268, -0.002727, -0.003130, 0.029778, 0.031033, -0.982557, -22.130148, -3.907772, -54.533939, 3.107048, -0.022362, -2.900156

149372600.988457, -0.001323, -0.002370, -0.001569, 0.029778, 0.031033, -0.982557, -22.150400, -3.912470, -54.523243, 3.107094, -0.022497, -2.900321

149372600.989518, 0.004087, 0.000371, 0.000856, 0.014889, 0.015516, -0.952324, -22.166601, -3.916228, -54.514687, 3.107503, -0.022371, -2.901041

149372600.990518, -0.003474, 0.002456, 0.000539, 0.014889, 0.015516, -0.952324, -22.138491, -3.878419, -54.484516, 3.107828, -0.022266, -2.901769

149372600.991546, 0.000785, 0.001208, 0.000229, 0.014889, 0.015516, -0.952324, -22.116001, -3.848171, -54.460381, 3.108187, -0.022152, -2.902502

149372600.992607, -0.002520, 0.002977, -0.002168, 0.014889, 0.031033, -0.982557, -22.098009, -3.823973, -54.441071, 3.108197, -0.022043, -2.902516

149372600.993616, 0.001121, 0.002615, 0.000569, 0.014889, 0.031033, -0.982557, -22.124689, -3.784206, -54.425621, 3.108245, -0.021932, -2.902596

149372600.994675, -0.006079, 0.000168, -0.000340, 0.029778, 0.046549, -0.982557, -22.146032, -3.752393, -54.413261, 3.107904, -0.022103, -2.902175

149372600.995669, 0.002122, 0.000464, -0.001828, 0.029778, 0.046549, -0.982557, -22.163107, -3.726942, -54.403374, 3.107653, -0.022272, -2.901772

149372600.996743, 0.003871, 0.003145, 0.002098, 0.029778, 0.031033, -0.982557, -22.135695, -3.747398, -54.395466, 3.107740, -0.022467, -2.902070

149372600.997761, 0.002594, 0.003677, 0.003847, 0.029778, 0.031033, -0.982557, -22.113764, -3.763763, -54.389137, 3.107811, -0.022661, -2.902362

149372600.998763, -0.001647, -0.000587, -0.000121, 0.014889, 0.031033, -0.997673, -22.096220, -3.776855, -54.384075, 3.107849, -0.022501, -2.902461

149372600.999822, -0.004004, -0.000873, 0.000480, 0.014889, 0.031033, -0.997673, -22.082186, -3.787328, -54.380028, 3.107861, -0.022340, -2.902552

149372601.000841, -0.008106, -0.001453, -0.003118, 0.029778, 0.031033, -0.982557, -22.070957, -3.795707, -54.376789, 3.107822, -0.022484, -2.902734

149372601.001864, -0.001357, -0.003516, 0.000236, 0.029778, 0.031033, -0.982557, -22.061975, -3.802410, -54.374199, 3.107852, -0.022605, -2.902939

149372601.002951, 0.003156, 0.000745, 0.002025, 0.029778, 0.031033, -0.952324, -22.054789, -3.807772, -54.372124, 3.107908, -0.022786, -2.903118

149372601.003937, 0.003090, -0.001962, -0.000409, 0.029778, 0.031033, -0.952324, -22.028503, -3.832470, -54.417114, 3.107960, -0.022936, -2.903243

149372601.004946, -0.000862, 0.001368, -0.001298, 0.014889, 0.031033, -0.967441, -22.007475, -3.852228, -54.453106, 3.107982, -0.022798, -2.903191

149372601.006020, -0.002040, 0.001937, -0.002466, 0.014889, 0.031033, -0.967441, -21.990652, -3.868035, -54.481899, 3.107991, -0.022669, -2.903110

149372601.007048, -0.006183, -0.001392, -0.000321, 0.029778, 0.031033, -0.997673, -22.038803, -3.819456, -54.504932, 3.107977, -0.022798, -2.903297

149372601.008080, -0.000372, -0.000765, -0.000315, 0.029778, 0.031033, -0.997673, -22.077324, -3.780593, -54.523361, 3.108023, -0.022930, -2.903517

149372601.009111, -0.000663, -0.001347, 0.000589, 0.044666, 0.031033, -0.997673, -22.108141, -3.749502, -54.538101, 3.108062, -0.023353, -2.903915

149372601.010128, -0.003340, -0.000123, -0.000619, 0.044666, 0.031033, -0.997673, -22.132793, -3.826671, -54.549896, 3.108074, -0.023779, -2.904237

149372601.011143, -0.006559, 0.000478, -0.001503, 0.014889, 0.031033, -0.982557, -22.152515, -3.888405, -54.559330, 3.108047, -0.023611, -2.904180

149372601.012166, 0.001353, 0.003159, -0.000874, 0.014889, 0.031033, -0.982557, -22.168293, -3.937793, -54.566879, 3.108099, -0.023473, -2.904092

149372601.013238, -0.001964, 0.001597, 0.001836, 0.014889, 0.031033, -0.982557, -22.180916, -3.977303, -54.572918, 3.108117, -0.023324, -2.904004

149372601.014223, -0.001923, 0.000966, 0.000302, 0.014889, 0.031033, -0.982557, -22.149942, -3.947687, -54.531101, 3.108136, -0.023170, -2.903921

149372601.015296, -0.003078, 0.001842, 0.000595, 0.029778, 0.031033, -0.982557, -22.125162, -3.923994, -54.497646, 3.108141, -0.023331, -2.904017

149372601.016279, -0.000023, 0.003897, -0.001511, 0.029778, 0.031033, -0.982557, -22.105339, -3.905039, -54.470882, 3.108178, -0.023508, -2.904101

149372601.017351, -0.000621, 0.004712, -0.002077, 0.029778, 0.015516, -0.997673, -22.130552, -3.889876, -54.542767, 3.108526, -0.023690, -2.904888

149372601.018366, 0.000289, -0.001966, 0.000359, 0.029778, 0.015516, -0.997673, -22.150723, -3.877745, -54.600277, 3.108876, -0.023800, -2.905699

149372601.019416, 0.001778, -0.004316, 0.000949, 0.029778, 0.015516, -0.967441, -22.166859, -3.868040, -54.646282, 3.109226, -0.023902, -2.906498

149372601.020465, 0.001442, 0.002353, -0.001463, 0.029778, 0.015516, -0.967441, -22.138697, -3.901093, -54.613117, 3.109564, -0.024069, -2.907223

149372601.021452, -0.002775, -0.000687, -0.002030, 0.029778, 0.015516, -0.967441, -22.116167, -3.927535, -54.586586, 3.109854, -0.024201, -2.907904

149372601.022473, 0.000573, -0.003363, -0.001389, 0.014889, 0.031033, -0.997673, -22.098143, -3.948689, -54.565361, 3.109872, -0.023981, -2.907735

149372601.023528, -0.000635, -0.001200, 0.000135, 0.014889, 0.031033, -0.997673, -22.104259, -3.883979, -54.548378, 3.109877, -0.023788, -2.907638

149372601.024561, -0.002715, 0.000620, -0.004353, 0.014889, 0.031033, -0.982557, -22.109154, -3.832211, -54.534794, 3.109851, -0.023620, -2.907522

149372601.025610, -0.007143, 0.003597, -0.003065, 0.014889, 0.031033, -0.982557, -22.113068, -3.790797, -54.523926, 3.109781, -0.023487, -2.907455

149372601.026616, -0.004900, -0.000366, -0.002104, 0.029778, 0.046549, -0.982557, -22.116199, -3.757666, -54.515232, 3.109423, -0.023622, -2.906906

149372601.027627, 0.000885, -0.002152, -0.001760, 0.029778, 0.046549, -0.982557, -22.077633, -3.710752, -54.554924, 3.109130, -0.023737, -2.906399

149372601.028678, -0.001227, 0.000285, 0.000968, 0.014889, 0.031033, -0.967441, -22.046780, -3.673222, -54.586678, 3.109125, -0.023573, -2.906460

149372601.029705, 0.002985, 0.001176, 0.001545, 0.014889, 0.031033, -0.967441, -22.022097, -3.643197, -54.612080, 3.109164, -0.023421, -2.906544

149372601.030772, -0.003357, -0.000942, 0.002410, 0.029778, 0.031033, -0.982557, -22.043423, -3.680402, -54.609077, 3.109146, -0.023550, -2.906785

149372601.031776, -0.000894, -0.001819, -0.000033, 0.029778, 0.031033, -0.982557, -22.060484, -3.710166, -54.606674, 3.109154, -0.023666, -2.906975

149372601.032786, 0.003909, -0.003874, 0.002958, 0.044666, 0.031033, -0.982557, -22.074133, -3.733977, -54.604752, 3.109207, -0.024064, -2.907319

149372601.033806, 0.001434, 0.000095, 0.002297, 0.044666, 0.031033, -0.982557, -22.023443, -3.773434, -54.626537, 3.109236, -0.024492, -2.907609

149372601.034834, -0.000390, 0.000093, -0.000741, 0.029778, 0.031033, -0.997673, -21.982891, -3.805000, -54.643967, 3.109257, -0.024600, -2.907700

149372601.035908, -0.000681, 0.000390, 0.001667, 0.029778, 0.031033, -0.997673, -21.950449, -3.830252, -54.657909, 3.109274, -0.024709, -2.907787

149372601.036900, 0.002922, -0.002010, 0.004622, 0.014889, 0.031033, -0.997673, -21.945032, -3.850454, -54.622417, 3.109328, -0.024495, -2.907727

149372601.037961, 0.001066, 0.003713, 0.000338, 0.014889, 0.031033, -0.997673, -21.940699, -3.866616, -54.594025, 3.109362, -0.024342, -2.907611

149372601.038990, -0.001348, -0.000850, -0.001164, 0.029778, 0.062065, -0.967441, -21.937231, -3.879545, -54.571312, 3.108716, -0.024482, -2.906229

149372601.040018, -0.000124, 0.001261, -0.002335, 0.029778, 0.062065, -0.967441, -21.934458, -3.889889, -54.553139, 3.108094, -0.024639, -2.904854

149372601.041043, 0.001972, -0.001158, -0.000492, 0.029778, 0.046549, -0.997673, -21.952776, -3.898163, -54.515278, 3.107853, -0.024734, -2.904253

149372601.042040, 0.001930, 0.001259, 0.000714, 0.029778, 0.046549, -0.997673, -21.967430, -3.904783, -54.484989, 3.107616, -0.024852, -2.903674

149372601.043101, -0.000802, 0.001232, 0.000400, 0.044666, 0.015516, -1.012789, -21.979153, -3.910079, -54.460758, 3.107972, -0.025257, -2.904585

149372601.044127, 0.000710, 0.000010, 0.003083, 0.044666, 0.015516, -1.012789, -21.947458, -3.873499, -54.418049, 3.108338, -0.025643, -2.905529

149372601.045150, -0.000206, 0.001232, 0.001861, -0.000000, 0.015516, -0.982557, -21.922102, -3.844235, -54.383881, 3.108692, -0.025147, -2.906047

149372601.046186, -0.003491, 0.001505, -0.000271, -0.000000, 0.015516, -0.982557, -21.901817, -3.820824, -54.356544, 3.109004, -0.024664, -2.906550

149372601.047193, -0.000427, -0.001517, 0.001230, -0.000000, 0.015516, -0.982557, -21.967735, -3.802096, -54.334679, 3.109343, -0.024160, -2.907087

149372601.048267, -0.002511, -0.001485, -0.000590, 0.014889, 0.031033, -0.967441, -22.020470, -3.787113, -54.317184, 3.109320, -0.023969, -2.907026

149372601.049296, -0.000664, 0.001536, -0.001176, 0.014889, 0.031033, -0.967441, -22.062656, -3.775126, -54.303188, 3.109317, -0.023813, -2.906977

149372601.050324, -0.001248, 0.001205, -0.002048, 0.029778, 0.031033, -0.982557, -22.096407, -3.765537, -54.291992, 3.109317, -0.023954, -2.907111

149372601.051337, 0.000572, 0.000582, 0.000387, 0.029778, 0.031033, -0.982557, -22.123407, -3.757866, -54.283035, 3.109337, -0.024086, -2.907277

149372601.052368, -0.000337, -0.000328, 0.000977, 0.044666, 0.046549, -0.952324, -22.145008, -3.751729, -54.275871, 3.109006, -0.024541, -2.906899

149372601.053394, -0.002722, -0.000321, 0.000358, 0.044666, 0.046549, -0.952324, -22.162289, -3.746819, -54.270138, 3.108658, -0.024986, -2.906529

149372601.054441, -0.001768, -0.001211, 0.003042, 0.059555, 0.031033, -0.967441, -22.176113, -3.763300, -54.312202, 3.108650, -0.025704, -2.907004

149372601.055463, 0.002157, -0.001484, -0.001507, 0.059555, 0.031033, -0.967441, -22.187172, -3.776484, -54.345852, 3.108681, -0.026403, -2.907415

149372601.056475, 0.000915, 0.000042, -0.002373, 0.029778, 0.031033, -0.982557, -22.196018, -3.787031, -54.372772, 3.108716, -0.026481, -2.907537

149372601.057506, 0.000597, 0.002433, -0.001426, 0.029778, 0.031033, -0.982557, -22.203096, -3.775061, -54.417633, 3.108748, -0.026581, -2.907674

149372601.058599, 0.000285, -0.002701, 0.000398, 0.044666, 0.031033, -0.967441, -22.208759, -3.765485, -54.453522, 3.108764, -0.026943, -2.907966

149372601.059573, -0.001814, -0.000252, 0.000091, 0.044666, 0.031033, -0.967441, -22.213289, -3.757824, -54.482231, 3.108759, -0.027324, -2.908254

149372601.060632, 0.001215, -0.000845, 0.000089, 0.014889, 0.031033, -0.982557, -22.196377, -3.792512, -54.551846, 3.108797, -0.027071, -2.908221

149372601.061648, 0.002684, -0.000528, -0.000810, 0.014889, 0.031033, -0.982557, -22.182846, -3.820262, -54.607540, 3.108847, -0.026828, -2.908153

149372601.062677, 0.002029, -0.001414, 0.000104, 0.014889, 0.031033, -0.967441, -22.172022, -3.842462, -54.652096, 3.108881, -0.026585, -2.908054

149372601.063739, -0.000704, 0.001905, -0.002888, 0.014889, 0.031033, -0.967441, -22.163363, -3.860222, -54.687740, 3.108885, -0.026380, -2.907908

149372601.064750, 0.001703, 0.000370, 0.000163, 0.014889, 0.031033, -0.967441, -22.156435, -3.894838, -54.646282, 3.108914, -0.026164, -2.907768

149372601.065759, 0.005554, 0.002455, 0.002252, 0.014889, 0.031033, -0.967441, -22.150894, -3.922531, -54.613117, 3.108981, -0.025973, -2.907629

149372601.066800, 0.002148, -0.001783, -0.001383, 0.029778, 0.031033, -0.982557, -22.146461, -3.944686, -54.586586, 3.109023, -0.026039, -2.907617

149372601.067828, 0.000907, -0.006529, 0.001636, 0.029778, 0.031033, -0.982557, -22.060770, -3.921593, -54.612007, 3.109052, -0.026059, -2.907640

149372601.068847, -0.000309, -0.001010, 0.001602, 0.014889, 0.046549, -0.967441, -21.992216, -3.903119, -54.632343, 3.108734, -0.025842, -2.906765

149372601.069900, -0.004189, 0.002300, 0.002465, 0.014889, 0.046549, -0.967441, -21.937372, -3.888339, -54.648613, 3.108383, -0.025664, -2.905915

149372601.070910, 0.002776, 0.002850, 0.001815, 0.044666, 0.015516, -0.982557, -21.975643, -3.896924, -54.684952, 3.108751, -0.026095, -2.906794

149372601.071929, 0.003615, 0.002491, 0.000581, 0.044666, 0.015516, -0.982557, -22.006260, -3.903791, -54.714024, 3.109120, -0.026514, -2.907643

149372601.072953, -0.003039, 0.001541, -0.000328, 0.014889, 0.031033, -0.997673, -22.030754, -3.909286, -54.737282, 3.109116, -0.026297, -2.907502

149372601.074032, -0.005367, 0.002107, -0.002115, 0.014889, 0.031033, -0.997673, -21.988739, -3.832048, -54.709240, 3.109086, -0.026091, -2.907401

149372601.075024, -0.002264, -0.000030, -0.003267, 0.014889, 0.031033, -0.952324, -21.955128, -3.770258, -54.686806, 3.109061, -0.025881, -2.907279

149372601.076075, -0.000722, 0.002063, 0.001586, 0.014889, 0.015516, -0.952324, -21.928238, -3.720827, -54.668858, 3.109382, -0.025703, -2.907989

149372601.077097, -0.000408, -0.000372, -0.000840, 0.014889, 0.015516, -0.952324, -21.906727, -3.681281, -54.654499, 3.109700, -0.025504, -2.908689

149372601.078125, 0.002036, -0.004037, 0.001604, 0.044666, -0.015483, -0.982557, -21.930590, -3.690461, -54.666336, 3.110649, -0.025916, -2.911045

149372601.079168, 0.000498, 0.002327, 0.001869, 0.044666, -0.015483, -0.982557, -21.949680, -3.697805, -54.675808, 3.111566, -0.026383, -2.913352

149372601.080212, -0.001007, -0.001011, -0.000263, 0.029778, 0.015516, -0.967441, -21.964952, -3.703680, -54.683384, 3.111834, -0.026465, -2.914085

149372601.081226, 0.001705, 0.001402, 0.001237, 0.029778, 0.015516, -0.967441, -21.997707, -3.728788, -54.712769, 3.112124, -0.026570, -2.914803

149372601.082257, -0.002517, 0.001970, -0.000284, 0.014889, 0.015516, -0.982557, -22.023911, -3.748875, -54.736279, 3.112375, -0.026365, -2.915353

149372601.083282, -0.002464, 0.002527, 0.002413, 0.014889, 0.015516, -0.982557, -22.044874, -3.764944, -54.755085, 3.112622, -0.026170, -2.915909

149372601.084304, -0.002412, -0.001712, 0.000568, 0.029778, 0.046549, -0.982557, -22.061646, -3.757392, -54.653511, 3.112232, -0.026242, -2.915201

149372601.085338, 0.000928, -0.002872, 0.002649, 0.029778, 0.046549, -0.982557, -22.075062, -3.751349, -54.572250, 3.111884, -0.026300, -2.914540

149372601.086355, -0.002381, -0.001915, 0.001099, 0.029778, 0.031033, -0.982557, -22.085794, -3.746516, -54.507240, 3.111824, -0.026360, -2.914564

149372601.087420, 0.004247, -0.000977, -0.000419, 0.029778, 0.031033, -0.982557, -22.094381, -3.742649, -54.525208, 3.111832, -0.026427, -2.914576

149372601.088449, 0.004756, -0.002153, 0.000785, 0.044666, 0.046549, -0.982557, -22.101250, -3.739555, -54.539581, 3.111534, -0.026789, -2.914090

149372601.089475, 0.000171, -0.002706, 0.000470, 0.044666, 0.046549, -0.982557, -22.106745, -3.737080, -54.551079, 3.111195, -0.027138, -2.913614

149372601.090505, -0.003421, 0.002135, 0.002254, 0.014889, 0.046549, -0.967441, -22.111141, -3.735101, -54.560276, 3.110802, -0.026932, -2.912791

149372601.091524, -0.002153, 0.000895, 0.001011, 0.014889, 0.046549, -0.967441, -22.094122, -3.753925, -54.590958, 3.110430, -0.026717, -2.911952

149372601.092565, -0.000912, -0.000021, -0.000506, 0.029778, 0.015516, -0.982557, -22.080507, -3.768984, -54.615505, 3.110727, -0.026794, -2.912683

149372601.093590, -0.003284, -0.000021, 0.000103, 0.029778, 0.015516, -0.982557, -22.069614, -3.781032, -54.635143, 3.110994, -0.026869, -2.913394

149372601.094597, 0.006054, -0.000618, -0.002291, 0.029778, 0.015516, -1.012789, -22.081436, -3.811078, -54.627529, 3.111358, -0.026918, -2.914059

149372601.095633, 0.001142, -0.001502, -0.004635, 0.029778, 0.015516, -1.012789, -22.090895, -3.835115, -54.621437, 3.111666, -0.026955, -2.914668

149372601.096691, -0.001872, -0.002966, -0.000351, 0.014889, 0.031033, -0.997673, -22.098461, -3.854344, -54.616562, 3.111622, -0.026684, -2.914449

149372601.097714, -0.001832, -0.000212, 0.000852, 0.014889, 0.031033, -0.997673, -22.042906, -3.849320, -54.589340, 3.111580, -0.026447, -2.914240

149372601.098724, -0.000897, 0.001885, 0.003824, 0.014889, 0.046549, -0.982557, -21.998461, -3.845300, -54.567562, 3.111220, -0.026248, -2.913334

149372601.099789, -0.002373, 0.000649, 0.002548, 0.014889, 0.046549, -0.982557, -21.962904, -3.842084, -54.550140, 3.110852, -0.026041, -2.912431

149372601.100817, -0.004206, 0.003704, -0.002339, 0.029778, 0.015516, -0.937208, -21.934460, -3.839512, -54.536201, 3.111091, -0.026197, -2.913032

149372601.101820, -0.001426, -0.001158, -0.000795, 0.029778, 0.015516, -0.937208, -21.932241, -3.959903, -54.525051, 3.111354, -0.026300, -2.913539

149372601.102835, -0.005582, 0.002454, -0.001675, 0.029778, 0.015516, -0.982557, -21.930466, -4.056215, -54.516132, 3.111586, -0.026407, -2.913969

149372601.103895, -0.001876, 0.003599, -0.000743, 0.029778, 0.046549, -0.982557, -21.929045, -4.133265, -54.508995, 3.111221, -0.026529, -2.912966

149372601.104936, -0.000940, 0.002028, -0.000428, 0.029778, 0.046549, -0.982557, -21.968981, -4.092865, -54.549934, 3.110874, -0.026632, -2.912026

149372601.105964, -0.001817, -0.000108, 0.000478, -0.000000, 0.031033, -0.982557, -22.000931, -4.060544, -54.582684, 3.110832, -0.026099, -2.911482

149372601.106987, 0.000015, 0.005575, -0.000131, -0.000000, 0.031033, -0.982557, -22.026489, -4.034688, -54.608883, 3.110809, -0.025633, -2.910969

149372601.108034, -0.002078, 0.002767, -0.001025, 0.029778, 0.031033, -0.967441, -22.046936, -3.993595, -54.676495, 3.110762, -0.025763, -2.910817

149372601.109042, -0.000539, 0.000915, -0.001601, 0.029778, 0.031033, -0.967441, -22.063293, -3.960720, -54.730583, 3.110732, -0.025872, -2.910691

149372601.110075, 0.003957, -0.001497, 0.000825, 0.014889, 0.046549, -0.982557, -22.076380, -3.934420, -54.773853, 3.110438, -0.025650, -2.909767

149372601.111105, 0.004472, -0.002063, 0.000508, 0.014889, 0.046549, -0.982557, -22.107386, -3.872564, -54.691849, 3.110155, -0.025426, -2.908918

149372601.112129, 0.002882, 0.000671, -0.000998, 0.014889, 0.031033, -0.967441, -22.132191, -3.823079, -54.626244, 3.110171, -0.025232, -2.908801

149372601.113170, -0.002560, 0.004245, 0.000518, 0.014889, 0.031033, -0.967441, -22.152035, -3.783491, -54.573761, 3.110132, -0.025079, -2.908738

149372601.114181, 0.000185, -0.000030, -0.000090, 0.029778, 0.031033, -0.982557, -22.167910, -3.751821, -54.531776, 3.110131, -0.025182, -2.908875

149372601.115224, 0.006759, -0.000927, 0.002602, 0.029778, 0.031033, -0.982557, -22.139536, -3.848934, -54.521511, 3.110198, -0.025275, -2.908955

149372601.116250, 0.002431, -0.000608, 0.001053, 0.014889, 0.031033, -0.982557, -22.116838, -3.926624, -54.513298, 3.110218, -0.025067, -2.908792

149372601.117289, 0.001482, -0.001791, 0.002227, 0.014889, 0.031033, -0.982557, -22.098680, -3.988776, -54.506729, 3.110229, -0.024851, -2.908591

149372601.118322, 0.007431, -0.002053, -0.000212, 0.014889, 0.031033, -0.997673, -22.125225, -3.956865, -54.548122, 3.110309, -0.024632, -2.908417

149372601.119334, 0.001893, 0.000981, -0.000806, 0.014889, 0.031033, -0.997673, -22.146461, -3.931336, -54.581234, 3.110330, -0.024447, -2.908266

149372601.120359, 0.000657, 0.000960, -0.000490, 0.029778, 0.031033, -0.997673, -22.163450, -3.910913, -54.607723, 3.110340, -0.024564, -2.908295

149372601.121389, 0.000942, -0.000555, 0.002211, 0.029778, 0.031033, -0.997673, -22.094896, -3.914983, -54.652241, 3.110353, -0.024663, -2.908335

149372601.122432, 0.000025, 0.000952, 0.000371, 0.014889, 0.046549, -0.982557, -22.040052, -3.918239, -54.687855, 3.110028, -0.024490, -2.907461

149372601.123462, 0.003613, -0.002358, 0.000363, 0.014889, 0.046549, -0.982557, -21.996178, -3.920844, -54.716347, 3.109745, -0.024286, -2.906591

149372601.124481, 0.002042, -0.002906, 0.000355, 0.029778, 0.015516, -0.952324, -22.002151, -3.943336, -54.715816, 3.110074, -0.024401, -2.907270

149372601.125511, -0.001290, -0.001350, 0.000049, 0.029778, 0.015516, -0.952324, -22.006929, -3.961329, -54.715389, 3.110363, -0.024529, -2.907918

149372601.126583, 0.007408, -0.002218, 0.000048, 0.014889, 0.031033, -0.967441, -22.010752, -3.975724, -54.715050, 3.110423, -0.024323, -2.907680

149372601.127605, 0.000674, 0.003509, -0.001149, 0.014889, 0.031033, -0.967441, -22.013811, -3.987240, -54.714779, 3.110411, -0.024179, -2.907424

149372601.128641, -0.006516, -0.000750, -0.000228, 0.014889, 0.031033, -0.982557, -22.016258, -3.976044, -54.667915, 3.110336, -0.023991, -2.907214

149372601.129678, 0.002292, 0.000760, -0.000223, 0.014889, 0.031033, -0.982557, -22.018215, -3.967088, -54.630424, 3.110352, -0.023822, -2.907017

149372601.130670, -0.002839, -0.000751, 0.000380, 0.044666, 0.031033, -0.997673, -22.019781, -3.959923, -54.600430, 3.110326, -0.024233, -2.907163

149372601.131691, 0.002303, -0.000137, 0.003362, 0.044666, 0.031033, -0.997673, -22.021034, -3.892966, -54.623081, 3.110351, -0.024642, -2.907387

149372601.132748, 0.000162, 0.002258, 0.002693, 0.044666, 0.031033, -0.997673, -22.022036, -3.839401, -54.641201, 3.110354, -0.025068, -2.907642

149372601.133778, -0.004327, 0.001014, 0.002038, 0.029778, 0.031033, -0.967441, -22.022837, -3.796549, -54.655697, 3.110294, -0.025192, -2.907741

149372601.134824, -0.005432, 0.001890, 0.001397, 0.029778, 0.031033, -0.967441, -22.064550, -3.782675, -54.667294, 3.110223, -0.025322, -2.907850

149372601.135837, 0.002457, -0.002934, -0.004612, -0.000000, 0.031033, -0.982557, -22.097921, -3.771576, -54.676571, 3.110240, -0.024785, -2.907604

149372601.136847, 0.001508, -0.000779, 0.001465, -0.000000, 0.031033, -0.982557, -22.124619, -3.762697, -54.683994, 3.110249, -0.024283, -2.907437

149372601.137896, 0.002373, 0.003723, 0.001733, 0.029778, 0.031033, -0.982557, -22.145977, -3.776002, -54.643288, 3.110268, -0.024441, -2.907593

149372601.138928, 0.003220, 0.000355, 0.000202, 0.029778, 0.031033, -0.982557, -22.121990, -3.786646, -54.610722, 3.110296, -0.024561, -2.907718

149372601.139994, -0.004621, 0.000946, -0.003092, 0.029778, 0.015516, -0.982557, -22.102800, -3.795161, -54.584667, 3.110554, -0.024691, -2.908489

149372601.140998, -0.002431, -0.000270, -0.002429, 0.029778, 0.015516, -0.982557, -22.087450, -3.801973, -54.563824, 3.110833, -0.024805, -2.909245

149372601.142007, 0.001234, -0.000576, -0.001207, 0.044666, 0.015516, -1.027906, -22.054632, -3.746198, -54.547150, 3.111149, -0.025179, -2.910175

149372601.143052, 0.000012, -0.005647, 0.000912, 0.044666, 0.015516, -1.027906, -22.028379, -3.701579, -54.533810, 3.111448, -0.025493, -2.911140

149372601.144077, 0.001539, -0.004730, -0.000310, 0.014889, 0.046549, -0.982557, -22.007376, -3.665883, -54.523140, 3.111116, -0.025245, -2.910407

149372601.145147, -0.005071, -0.001043, -0.000603, 0.014889, 0.046549, -0.982557, -22.011110, -3.698550, -54.537926, 3.110721, -0.025038, -2.909658

149372601.146144, -0.001376, 0.000773, -0.001487, 0.029778, 0.015516, -0.982557, -22.014097, -3.724685, -54.549755, 3.111007, -0.025156, -2.910452

149372601.147155, 0.001344, -0.000439, 0.000039, 0.029778, 0.015516, -0.982557, -22.016487, -3.745592, -54.559219, 3.111314, -0.025260, -2.911228

149372601.148194, 0.003408, -0.001028, 0.003029, 0.014889, 0.046549, -0.982557, -22.038935, -3.741910, -54.566788, 3.111005, -0.025054, -2.910470

149372601.149238, 0.004832, -0.001604, 0.000274, 0.014889, 0.046549, -0.982557, -22.056892, -3.738964, -54.572845, 3.110715, -0.024846, -2.909705

149372601.150272, -0.000054, -0.000374, -0.002722, 0.014889, 0.031033, -0.967441, -22.071259, -3.736607, -54.577690, 3.110690, -0.024652, -2.909615

149372601.151312, 0.001741, -0.000067, -0.001170, 0.014889, 0.031033, -0.967441, -22.082752, -3.734722, -54.581566, 3.110684, -0.024466, -2.909546

149372601.152322, -0.000389, -0.002458, 0.002144, 0.029778, 0.031033, -0.967441, -22.030338, -3.916887, -54.491371, 3.110658, -0.024569, -2.909518

149372601.153351, 0.003507, -0.000313, -0.001190, 0.029778, 0.031033, -0.967441, -21.988407, -4.062619, -54.419216, 3.110671, -0.024689, -2.909333

149372601.154377, -0.000454, 0.001487, -0.000567, 0.014889, 0.046549, -0.967441, -21.954863, -4.179205, -54.361492, 3.110318, -0.024527, -2.908180

149372601.155415, 0.001947, -0.000039, 0.001239, 0.014889, 0.046549, -0.967441, -21.989635, -4.068392, -54.431931, 3.109997, -0.024352, -2.907164

149372601.156447, -0.004373, -0.001832, -0.001179, 0.029778, 0.015516, -0.967441, -22.017454, -3.979741, -54.488281, 3.110262, -0.024466, -2.907797

149372601.157462, 0.004689, -0.002093, 0.003630, 0.029778, 0.015516, -0.967441, -22.039709, -3.908821, -54.533363, 3.110613, -0.024578, -2.908527

149372601.158483, 0.001601, 0.001838, 0.000862, 0.014889, 0.031033, -0.952324, -22.016439, -3.852085, -54.592754, 3.110597, -0.024417, -2.908369

149372601.159555, -0.001722, -0.002087, 0.000545, 0.014889, 0.031033, -0.952324, -21.997824, -3.806696, -54.640266, 3.110547, -0.024220, -2.908246

149372601.160590, 0.000416, 0.001578, 0.000545, 0.014889, 0.015516, -0.997673, -21.982931, -3.770385, -54.678276, 3.110864, -0.024056, -2.908920

149372601.161572, 0.000706, -0.001445, -0.001859, 0.029778, 0.015516, -0.997673, -21.991554, -3.802560, -54.662033, 3.111172, -0.024162, -2.909664

149372601.162645, 0.000093, 0.002771, 0.000872, 0.029778, 0.015516, -0.997673, -21.998453, -3.828301, -54.649040, 3.111468, -0.024310, -2.910399

149372601.163644, -0.002600, -0.001473, 0.002049, 0.044666, 0.031033, -0.982557, -22.003971, -3.848893, -54.638645, 3.111413, -0.024718, -2.910563

149372601.164666, 0.006126, 0.001847, 0.001707, 0.044666, 0.031033, -0.982557, -22.008387, -3.865367, -54.630329, 3.111445, -0.025151, -2.910708

149372601.165718, 0.000914, 0.000612, -0.000422, 0.059555, 0.031033, -0.952324, -22.052990, -3.858138, -54.716972, 3.111402, -0.025902, -2.910956

149372601.166749, -0.005384, -0.002092, -0.000413, 0.059555, 0.031033, -0.952324, -22.088673, -3.852354, -54.786289, 3.111295, -0.026611, -2.911209

149372601.167793, -0.001384, 0.003932, 0.002287, 0.044666, 0.015516, -0.967441, -22.117220, -3.847728, -54.841740, 3.111559, -0.027048, -2.912042

149372601.168825, 0.003728, 0.001158, 0.001043, 0.044666, 0.015516, -0.967441, -22.119522, -3.844027, -54.769482, 3.111869, -0.027447, -2.912850

149372601.169840, 0.004846, -0.002155, -0.002567, 0.014889, 0.031033, -0.982557, -22.121363, -3.841066, -54.711678, 3.111878, -0.027179, -2.912640

149372601.170852, 0.000857, -0.000017, -0.001317, 0.014889, 0.031033, -0.982557, -22.122835, -3.838697, -54.665432, 3.111848, -0.026938, -2.912449

149372601.171883, -0.000058, 0.003871, 0.001999, 0.014889, 0.031033, -0.997673, -22.082941, -3.795985, -54.605110, 3.111820, -0.026738, -2.912342

149372601.172932, 0.000541, 0.004088, 0.000163, 0.014889, 0.031033, -0.997673, -22.051025, -3.761816, -54.556854, 3.111799, -0.026543, -2.912242

149372601.173940, -0.000965, 0.002806, -0.000139, 0.029778, 0.031033, -0.982557, -22.025494, -3.734481, -54.518250, 3.111754, -0.026645, -2.912296

149372601.174998, -0.002739, -0.002336, -0.000136, 0.029778, 0.031033, -0.982557, -22.046141, -3.773837, -54.534012, 3.111691, -0.026693, -2.912322

149372601.176038, 0.003299, -0.004978, -0.002525, 0.029778, 0.031033, -0.967441, -22.062658, -3.805322, -54.546623, 3.111681, -0.026723, -2.912286

149372601.177059, 0.000239, -0.003677, -0.000977, 0.029778, 0.031033, -0.967441, -22.075872, -3.830510, -54.556713, 3.111640, -0.026767, -2.912248

149372601.178081, 0.000832, -0.001507, -0.001256, 0.014889, 0.031033, -0.967441, -22.086443, -3.850661, -54.564785, 3.111604, -0.026524, -2.912031

149372601.179091, 0.004702, -0.000578, -0.001229, 0.014889, 0.031033, -0.967441, -22.115437, -3.866781, -54.571243, 3.111608, -0.026296, -2.911812

149372601.180142, -0.001975, 0.001228, -0.002698, 0.029778, 0.046549, -0.967441, -22.138630, -3.879677, -54.576408, 3.111227, -0.026403, -2.911049

149372601.181185, -0.000738, 0.000604, -0.000548, 0.029778, 0.046549, -0.967441, -22.157185, -3.889994, -54.580540, 3.110866, -0.026502, -2.910320

149372601.182220, 0.001371, -0.001501, 0.000061, 0.029778, 0.031033, -0.982557, -22.110420, -3.857432, -54.583847, 3.110863, -0.026561, -2.910332

149372601.183238, 0.000146, 0.000623, -0.001136, 0.029778, 0.031033, -0.982557, -22.073009, -3.831382, -54.586491, 3.110847, -0.026642, -2.910345

149372601.184280, 0.002834, -0.000586, -0.002607, -0.000000, 0.031033, -0.982557, -22.043081, -3.810541, -54.588608, 3.110855, -0.026103, -2.910026

149372601.185289, 0.000382, -0.000574, 0.001335, -0.000000, 0.031033, -0.982557, -22.039675, -3.834686, -54.613625, 3.110839, -0.025575, -2.909730

149372601.186308, -0.000822, 0.001831, 0.002204, 0.029778, 0.046549, -0.967441, -22.036949, -3.854001, -54.633636, 3.110487, -0.025703, -2.909055

149372601.187332, 0.003381, 0.001194, -0.000833, 0.029778, 0.046549, -0.967441, -22.034769, -3.869453, -54.649647, 3.110183, -0.025822, -2.908351

149372601.188406, -0.000278, 0.000571, 0.001577, 0.029778, 0.046549, -0.967441, -22.033024, -3.902223, -54.592484, 3.109848, -0.025932, -2.907661

149372601.189437, 0.001522, 0.002951, 0.001244, 0.029778, 0.046549, -0.967441, -22.031628, -3.928439, -54.546753, 3.109539, -0.026064, -2.906960

149372601.190445, -0.002098, -0.000101, -0.000277, 0.029778, 0.046549, -0.967441, -22.030512, -3.949412, -54.510170, 3.109200, -0.026162, -2.906244

149372601.191474, -0.001157, -0.000697, 0.000925, 0.029778, 0.046549, -0.997673, -22.029619, -3.966190, -54.480904, 3.108905, -0.026233, -2.905593

149372601.192502, 0.001559, 0.001710, -0.000589, 0.029778, 0.046549, -0.997673, -22.028904, -3.918388, -54.480812, 3.108643, -0.026325, -2.904976

149372601.193529, -0.000268, -0.002213, -0.000577, 0.014889, 0.031033, -0.997673, -22.028332, -3.880147, -54.480740, 3.108677, -0.026075, -2.904917

149372601.194558, -0.000562, -0.000074, 0.000930, 0.014889, 0.031033, -0.997673, -22.027874, -3.849554, -54.480682, 3.108707, -0.025852, -2.904899

149372601.195624, -0.003241, 0.000227, 0.002705, 0.014889, 0.031033, -0.997673, -22.027508, -3.825079, -54.457314, 3.108710, -0.025636, -2.904921

149372601.196612, -0.001080, -0.001871, -0.000940, 0.014889, 0.031033, -0.997673, -22.027216, -3.805499, -54.438618, 3.108735, -0.025404, -2.904922

149372601.197654, 0.000139, -0.002430, 0.000574, 0.029778, 0.031033, -0.967441, -22.026981, -3.789836, -54.423660, 3.108752, -0.025486, -2.905072

149372601.198717, 0.002827, -0.000286, 0.001758, 0.029778, 0.031033, -0.967441, -22.047331, -3.777305, -54.435020, 3.108797, -0.025589, -2.905245

149372601.199699, 0.003964, 0.000617, -0.000372, -0.000000, 0.031033, -0.982557, -22.063610, -3.767280, -54.444107, 3.108858, -0.025083, -2.905096

149372601.200787, -0.000007, 0.001801, 0.001131, -0.000000, 0.031033, -0.982557, -22.076633, -3.759260, -54.451378, 3.108880, -0.024601, -2.904974

149372601.201763, -0.003061, -0.000338, 0.001131, 0.044666, 0.015516, -0.997673, -22.087051, -3.752844, -54.457191, 3.109184, -0.025009, -2.906002

149372601.202833, -0.001203, 0.000567, 0.000210, 0.044666, 0.015516, -0.997673, -22.115923, -3.768120, -54.461845, 3.109498, -0.025418, -2.906993

149372601.203840, -0.001177, 0.000854, -0.000093, 0.014889, 0.031033, -0.982557, -22.139019, -3.780340, -54.465569, 3.109497, -0.025221, -2.906983

149372601.204868, 0.002735, -0.003051, -0.000988, 0.014889, 0.031033, -0.982557, -22.157497, -3.790116, -54.468544, 3.109535, -0.024989, -2.906961

149372601.205907, 0.002677, 0.000302, -0.000967, 0.044666, 0.000000, -0.997673, -22.131207, -3.736713, -54.494247, 3.110186, -0.025413, -2.908616

149372601.206920, -0.000369, 0.001791, -0.000947, 0.044666, 0.000000, -0.997673, -22.110174, -3.693990, -54.514812, 3.110794, -0.025842, -2.910269

149372601.207981, -0.001259, 0.000557, -0.000628, 0.044666, 0.031033, -0.982557, -22.093348, -3.659812, -54.531265, 3.110762, -0.026239, -2.910573

149372601.208980, 0.000263, 0.001741, 0.000282, 0.044666, 0.031033, -0.982557, -22.120960, -3.673286, -54.544426, 3.110747, -0.026639, -2.910873

149372601.210005, 0.000257, 0.000508, -0.001219, 0.014889, 0.046549, -0.997673, -22.143049, -3.684065, -54.554955, 3.110430, -0.026414, -2.910178

149372601.211054, -0.002738, 0.001993, -0.000595, 0.014889, 0.046549, -0.997673, -22.160721, -3.692688, -54.563377, 3.110089, -0.026210, -2.909499

149372601.212104, 0.000609, -0.000740, -0.000583, 0.029778, 0.062065, -0.982557, -22.133785, -3.760811, -54.500145, 3.109466, -0.026301, -2.908260

149372601.213118, -0.004786, 0.000471, -0.001467, 0.029778, 0.062065, -0.982557, -22.112238, -3.815309, -54.449558, 3.108802, -0.026403, -2.906992

149372601.214167, -0.006008, -0.003499, -0.001773, -0.000000, 0.015516, -0.967441, -22.094999, -3.858908, -54.409088, 3.109081, -0.025843, -2.907453

149372601.215157, -0.004387, -0.001931, 0.000358, -0.000000, 0.015516, -0.967441, -22.081209, -3.893787, -54.376713, 3.109373, -0.025311, -2.907893

149372601.216222, 0.003779, -0.001292, -0.002640, 0.029778, 0.031033, -0.952324, -22.070177, -3.860466, -54.420784, 3.109405, -0.025415, -2.907885

149372601.217224, 0.002802, -0.001863, 0.001303, 0.029778, 0.031033, -0.952324, -22.061350, -3.833809, -54.456039, 3.109425, -0.025514, -2.907937

149372601.218284, 0.001547, -0.000926, 0.001574, 0.029778, 0.031033, -0.952324, -22.054289, -3.812483, -54.484245, 3.109433, -0.025619, -2.908005

149372601.219303, -0.002372, 0.002681, -0.000253, 0.014889, 0.046549, -0.967441, -22.110249, -3.836239, -54.483486, 3.109087, -0.025447, -2.907190

149372601.220330, 0.000070, 0.002326, 0.001247, 0.014889, 0.046549, -0.967441, -22.155018, -3.855243, -54.482880, 3.108772, -0.025275, -2.906401

149372601.221421, 0.000965, -0.000414, 0.000025, 0.044666, 0.015516, -0.982557, -22.190832, -3.870447, -54.482395, 3.109114, -0.025681, -2.907309

149372601.222410, -0.001148, -0.002499, 0.000324, 0.044666, 0.015516, -0.982557, -22.198948, -3.862202, -54.528652, 3.109428, -0.026059, -2.908209

149372601.223419, 0.000684, -0.001888, 0.002156, 0.014889, 0.046549, -0.952324, -22.205441, -3.855606, -54.565659, 3.109097, -0.025839, -2.907387

149372601.224460, -0.002320, 0.001740, -0.000580, 0.014889, 0.046549, -0.952324, -22.210634, -3.850329, -54.595264, 3.108743, -0.025659, -2.906559

149372601.225487, -0.004364, 0.001703, -0.001166, -0.000000, 0.046549, -0.982557, -22.214788, -3.886924, -54.618950, 3.108397, -0.025169, -2.905577

149372601.226514, -0.002777, 0.002565, 0.000952, -0.000000, 0.046549, -0.982557, -22.218113, -3.916200, -54.637897, 3.108074, -0.024699, -2.904613

149372601.227551, 0.000570, 0.001315, 0.001231, 0.029778, 0.031033, -0.982557, -22.220772, -3.939620, -54.653057, 3.108119, -0.024824, -2.904703

149372601.228573, 0.000857, -0.002600, -0.002084, 0.029778, 0.031033, -0.982557, -22.222898, -3.958357, -54.665184, 3.108164, -0.024906, -2.904746

149372601.229597, -0.001254, -0.002246, 0.001847, 0.014889, 0.031033, -0.967441, -22.224600, -3.891714, -54.651562, 3.108179, -0.024694, -2.904703

149372601.230623, -0.002722, -0.002199, 0.001509, 0.014889, 0.031033, -0.967441, -22.225962, -3.838399, -54.640663, 3.108179, -0.024487, -2.904702

149372601.231696, -0.002964, -0.000658, -0.002410, 0.014889, 0.031033, -0.967441, -22.227051, -3.795747, -54.631943, 3.108174, -0.024297, -2.904696

149372601.232678, 0.000387, -0.002438, 0.000332, 0.014889, 0.031033, -0.967441, -22.186850, -3.782034, -54.694942, 3.108205, -0.024096, -2.904720

149372601.233750, -0.001415, -0.000593, -0.000273, -0.000000, 0.031033, -0.982557, -22.154688, -3.771063, -54.745342, 3.108225, -0.023608, -2.904591

149372601.234782, -0.001684, 0.003307, -0.000268, -0.000000, 0.031033, -0.982557, -22.128960, -3.762287, -54.785660, 3.108242, -0.023169, -2.904464

149372601.235806, -0.004433, -0.000969, -0.000573, 0.044666, 0.000000, -0.982557, -22.128914, -3.775674, -54.724617, 3.108845, -0.023632, -2.906146

149372601.236811, 0.000145, 0.000546, 0.002429, 0.044666, 0.000000, -0.982557, -22.128876, -3.786383, -54.675785, 3.109484, -0.024100, -2.907815

149372601.237842, -0.003214, 0.003601, 0.000291, 0.014889, 0.031033, -0.952324, -22.128845, -3.794951, -54.636719, 3.109442, -0.023967, -2.907734

149372601.238880, 0.000142, 0.002628, -0.001808, 0.014889, 0.031033, -0.952324, -22.067213, -3.781397, -54.628788, 3.109434, -0.023826, -2.907633

149372601.239924, -0.000163, -0.002259, 0.000024, 0.014889, 0.015516, -0.997673, -22.017906, -3.770553, -54.622444, 3.109768, -0.023631, -2.908321

149372601.240939, -0.000459, -0.003109, -0.000574, 0.014889, 0.015516, -0.997673, -21.978460, -3.761879, -54.617371, 3.110091, -0.023431, -2.908991

149372601.241991, 0.001046, -0.003641, 0.000634, 0.029778, 0.031033, -0.982557, -21.946905, -3.754939, -54.613312, 3.110101, -0.023530, -2.909087

149372601.243022, 0.000426, 0.000621, 0.000322, 0.029778, 0.031033, -0.982557, -21.962732, -3.810612, -54.656712, 3.110103, -0.023671, -2.909134

149372601.244078, 0.000118, 0.000309, 0.001511, 0.014889, 0.031033, -0.967441, -21.975395, -3.855150, -54.691433, 3.110093, -0.023509, -2.908979

149372601.245085, 0.002209, -0.002687, 0.004170, 0.014889, 0.031033, -0.967441, -21.985525, -3.890781, -54.719208, 3.110103, -0.023322, -2.908825

149372601.246074, 0.002162, 0.001555, 0.004381, 0.014889, 0.031033, -0.967441, -22.014166, -3.817245, -54.671455, 3.110113, -0.023180, -2.908742

149372601.247127, -0.001503, 0.001861, 0.001327, 0.044666, 0.015516, -1.012789, -22.037079, -3.758415, -54.633255, 3.110411, -0.023624, -2.909689

149372601.248152, 0.000921, -0.000570, 0.000701, 0.044666, 0.015516, -1.012789, -22.055408, -3.711352, -54.602695, 3.110729, -0.024035, -2.910651

149372601.249213, -0.001523, -0.001792, 0.000090, 0.014889, 0.031033, -0.967441, -22.070072, -3.694110, -54.578247, 3.110688, -0.023844, -2.910606

149372601.250217, -0.002089, -0.003548, -0.000809, 0.014889, 0.031033, -0.967441, -22.081802, -3.680316, -54.558689, 3.110644, -0.023640, -2.910568

149372601.251227, -0.001148, -0.003175, -0.000493, 0.014889, 0.031033, -0.982557, -22.091187, -3.669281, -54.543041, 3.110620, -0.023439, -2.910564

149372601.252267, -0.002918, -0.001912, -0.002276, 0.014889, 0.031033, -0.982557, -22.098694, -3.660452, -54.530525, 3.110578, -0.023254, -2.910551

149372601.253302, -0.000165, -0.001872, -0.001331, -0.000000, 0.015516, -0.982557, -22.084164, -3.735023, -54.567158, 3.110887, -0.022773, -2.911058

149372601.254339, -0.005843, -0.000636, 0.001089, -0.000000, 0.015516, -0.982557, -22.072540, -3.794679, -54.596462, 3.111131, -0.022315, -2.911525

149372601.255379, -0.000338, -0.002118, 0.001066, 0.029778, 0.015516, -0.967441, -22.063242, -3.842404, -54.619907, 3.111413, -0.022467, -2.912212

149372601.256389, 0.000267, 0.000917, -0.001050, 0.029778, 0.015516, -0.967441, -22.055803, -3.860175, -54.615341, 3.111696, -0.022647, -2.912847

149372601.257420, 0.002056, -0.003288, -0.000430, 0.014889, 0.031033, -0.967441, -22.049852, -3.874393, -54.611687, 3.111672, -0.022468, -2.912600

149372601.258448, 0.002012, -0.001126, 0.002569, 0.014889, 0.031033, -0.967441, -22.045092, -3.885767, -54.608765, 3.111650, -0.022316, -2.912377

149372601.259520, -0.004907, 0.002486, -0.001372, 0.044666, 0.031033, -0.967441, -22.020746, -3.813233, -54.676399, 3.111554, -0.022818, -2.912482

149372601.260507, 0.003269, 0.003928, 0.001946, 0.044666, 0.031033, -0.967441, -22.001270, -3.755206, -54.730507, 3.111543, -0.023322, -2.912658

149372601.261569, -0.000986, 0.002350, -0.000786, 0.014889, 0.015516, -0.952324, -21.985689, -3.708785, -54.773792, 3.111810, -0.023197, -2.913253

149372601.262600, 0.003520, 0.000806, -0.000470, 0.014889, 0.015516, -0.952324, -21.973225, -3.773689, -54.808422, 3.112118, -0.023057, -2.913783

149372601.263624, -0.001978, 0.004471, -0.001997, 0.029778, 0.031033, -0.997673, -21.963253, -3.825612, -54.836124, 3.112065, -0.023236, -2.913713

149372601.264640, -0.001338, -0.003098, -0.001357, 0.029778, 0.031033, -0.997673, -21.955275, -3.867150, -54.858288, 3.112020, -0.023337, -2.913617

149372601.265678, -0.000114, -0.002435, -0.000432, 0.029778, 0.015516, -0.967441, -21.948893, -3.900381, -54.876019, 3.112288, -0.023464, -2.914180

149372601.266692, 0.004075, 0.001205, -0.000722, 0.029778, 0.015516, -0.967441, -21.984859, -3.906557, -54.796906, 3.112591, -0.023626, -2.914728

149372601.267758, 0.003092, -0.002409, -0.000407, 0.014889, 0.015516, -0.997673, -22.013634, -3.911498, -54.733616, 3.112894, -0.023429, -2.915149

149372601.268787, -0.004448, 0.000632, 0.000498, 0.014889, 0.015516, -0.997673, -22.036652, -3.915451, -54.682983, 3.113114, -0.023268, -2.915572

149372601.269799, -0.002561, -0.000876, 0.002282, 0.014889, 0.000000, -0.997673, -22.116676, -3.857389, -54.642479, 3.113663, -0.023110, -2.916784

149372601.270826, -0.001012, -0.001157, 0.002533, 0.014889, 0.000000, -0.997673, -22.180696, -3.810939, -54.610073, 3.114217, -0.022952, -2.918023

149372601.271854, -0.000392, -0.002030, 0.000386, 0.014889, 0.031033, -0.967441, -22.231913, -3.773779, -54.584148, 3.114119, -0.022781, -2.917800

149372601.272891, -0.001580, 0.003993, -0.000519, 0.014889, 0.031033, -0.967441, -22.211275, -3.805276, -54.610058, 3.114010, -0.022674, -2.917539

149372601.273913, -0.000949, -0.000277, -0.001405, 0.014889, 0.031033, -0.952324, -22.194765, -3.830473, -54.630783, 3.113899, -0.022530, -2.917231

149372601.274927, -0.005713, 0.000327, -0.000478, 0.029778, 0.031033, -0.952324, -22.181557, -3.850631, -54.647366, 3.113745, -0.022708, -2.917084

149372601.275956, -0.003201, -0.002072, 0.001027, 0.029778, 0.031033, -0.952324, -22.150454, -3.887165, -54.590660, 3.113620, -0.022858, -2.916921

149372601.277025, -0.001339, -0.001131, 0.000706, 0.029778, 0.046549, -0.982557, -22.125572, -3.916393, -54.545296, 3.113221, -0.023002, -2.916088

149372601.278032, 0.000184, -0.000510, -0.000206, 0.029778, 0.046549, -0.982557, -22.105667, -3.939775, -54.509003, 3.112847, -0.023150, -2.915240

149372601.279049, 0.002273, 0.000099, 0.003088, 0.014889, 0.031033, -0.982557, -22.089743, -3.958481, -54.479969, 3.112813, -0.022993, -2.914941

149372601.280111, -0.003157, 0.003386, 0.002425, 0.014889, 0.031033, -0.982557, -22.035931, -3.912221, -54.503387, 3.112723, -0.022872, -2.914667

149372601.281139, 0.003488, 0.000026, 0.000879, 0.014889, 0.031033, -0.982557, -21.992880, -3.875213, -54.522125, 3.112704, -0.022719, -2.914405

149372601.282197, -0.000772, -0.000872, -0.000336, 0.014889, 0.031033, -0.982557, -21.958441, -3.845606, -54.537113, 3.112641, -0.022559, -2.914153

149372601.283206, -0.002549, -0.002348, -0.000628, 0.044666, 0.031033, -0.952324, -21.971962, -3.801513, -54.572430, 3.112542, -0.023021, -2.914220

149372601.284223, 0.002587, -0.000804, 0.001777, 0.044666, 0.031033, -0.952324, -21.982779, -3.766238, -54.600681, 3.112497, -0.023489, -2.914338

149372601.285271, 0.002234, 0.000409, 0.000245, 0.044666, 0.031033, -0.982557, -21.991432, -3.738019, -54.623283, 3.112469, -0.023931, -2.914490

149372601.286303, 0.008167, -0.003487, 0.001735, 0.044666, 0.031033, -0.982557, -22.039427, -3.715443, -54.524746, 3.112501, -0.024326, -2.914683

149372601.287310, 0.005902, -0.000423, -0.001890, 0.014889, 0.031033, -0.982557, -22.077824, -3.697382, -54.445915, 3.112509, -0.024137, -2.914558

149372601.288360, -0.002594, -0.000713, 0.001140, 0.014889, 0.031033, -0.982557, -22.108540, -3.682934, -54.382851, 3.112432, -0.023951, -2.914486

149372601.289373, -0.000148, -0.002193, 0.001714, 0.029778, 0.031033, -0.982557, -22.133114, -3.671375, -54.332397, 3.112383, -0.024056, -2.914589

149372601.290417, -0.001042, 0.001142, -0.000116, 0.029778, 0.031033, -0.982557, -22.152773, -3.662128, -54.292034, 3.112325, -0.024191, -2.914683

149372601.291442, -0.003113, -0.000377, -0.002207, 0.029778, 0.031033, -0.967441, -22.168499, -3.654730, -54.259747, 3.112237, -0.024318, -2.914747

149372601.292456, -0.001253, -0.000369, 0.000531, 0.029778, 0.031033, -0.967441, -22.181080, -3.648812, -54.233913, 3.112170, -0.024442, -2.914844

149372601.293510, -0.001825, 0.001134, -0.000676, 0.044666, 0.046549, -0.982557, -22.150072, -3.705302, -54.306545, 3.111798, -0.024876, -2.914379

149372601.294520, -0.005075, -0.001581, -0.000662, 0.044666, 0.046549, -0.982557, -22.125267, -3.750494, -54.364651, 3.111402, -0.025275, -2.913884

149372601.295543, -0.003548, -0.002498, -0.000051, -0.015630, 0.046549, -0.982557, -22.105423, -3.786648, -54.411133, 3.110998, -0.024437, -2.912616

149372601.296573, -0.001381, -0.002445, -0.001545, -0.015630, 0.046549, -0.982557, -22.069012, -3.835979, -54.424995, 3.110623, -0.023616, -2.911305

149372601.297654, 0.000143, 0.000895, -0.002111, 0.014889, 0.015516, -0.982557, -22.039883, -3.875444, -54.436089, 3.110930, -0.023460, -2.911805

149372601.298638, 0.001635, -0.000618, 0.000027, 0.014889, 0.015516, -0.982557, -22.016579, -3.907016, -54.444962, 3.111245, -0.023291, -2.912287

149372601.299698, 0.000405, -0.001502, -0.001170, 0.014889, 0.031033, -0.982557, -22.018473, -3.911865, -54.522030, 3.111223, -0.023113, -2.912027

149372601.300684, 0.000995, -0.001172, -0.001145, 0.014889, 0.031033, -0.982557, -22.019987, -3.915745, -54.583687, 3.111208, -0.022942, -2.911769

149372601.301756, 0.003964, 0.002142, 0.002168, 0.029778, 0.046549, -0.982557, -22.021198, -3.918848, -54.633011, 3.110914, -0.023118, -2.911026

149372601.302795, 0.004777, 0.000004, 0.002421, 0.029778, 0.046549, -0.982557, -22.022167, -3.921331, -54.672470, 3.110632, -0.023268, -2.910298

149372601.303786, 0.007368, -0.000295, -0.001218, 0.029778, 0.046549, -0.982557, -22.022943, -3.943725, -54.657391, 3.110379, -0.023410, -2.909531

149372601.304850, -0.003253, 0.001804, -0.000295, 0.029778, 0.046549, -0.967441, -22.023563, -3.961641, -54.645325, 3.110010, -0.023582, -2.908747

149372601.305871, 0.005188, 0.004158, 0.003000, 0.029778, 0.046549, -0.967441, -22.024059, -3.975973, -54.635674, 3.109736, -0.023774, -2.908001

149372601.306900, -0.000602, 0.001379, -0.003342, 0.014889, 0.031033, -0.967441, -22.106602, -3.926215, -54.627953, 3.109724, -0.023619, -2.907789

149372601.307924, -0.002085, -0.002836, -0.001478, 0.014889, 0.031033, -0.967441, -22.172636, -3.886408, -54.621777, 3.109698, -0.023426, -2.907647

149372601.308952, 0.000351, -0.004570, -0.000849, 0.014889, 0.015516, -0.982557, -22.225464, -3.854563, -54.616837, 3.110026, -0.023219, -2.908283

149372601.309973, -0.003244, -0.004773, -0.002924, 0.014889, 0.015516, -0.982557, -22.185579, -3.849494, -54.612885, 3.110311, -0.023014, -2.908884

149372601.311027, 0.002505, -0.002878, -0.003460, 0.014889, 0.015516, -0.982557, -22.153673, -3.845440, -54.609722, 3.110648, -0.022831, -2.909463

149372601.312052, 0.001854, 0.002265, -0.002191, 0.014889, 0.015516, -0.982557, -22.128147, -3.842196, -54.607193, 3.110972, -0.022704, -2.910041

149372601.313057, 0.004506, -0.002566, -0.000351, 0.014889, 0.046549, -0.982557, -22.128263, -3.798785, -54.581844, 3.110679, -0.022533, -2.909246

149372601.314097, 0.002319, 0.003169, -0.002437, 0.014889, 0.046549, -0.982557, -22.128357, -3.764056, -54.561565, 3.110371, -0.022423, -2.908474

149372601.315135, -0.002813, -0.000486, -0.001787, 0.029778, 0.031033, -0.967441, -22.128431, -3.736273, -54.545341, 3.110324, -0.022584, -2.908588

149372601.316183, -0.003950, -0.001672, 0.000044, 0.029778, 0.031033, -0.967441, -22.128490, -3.714046, -54.532364, 3.110267, -0.022730, -2.908737

149372601.317241, 0.001548, 0.000772, -0.000567, 0.014889, 0.046549, -0.967441, -22.087465, -3.777897, -54.521980, 3.109945, -0.022597, -2.907945

149372601.318233, 0.006128, -0.002588, 0.000655, 0.014889, 0.046549, -0.967441, -22.054646, -3.828979, -54.513676, 3.109674, -0.022434, -2.907135

149372601.319250, 0.006128, -0.005031, -0.000261, 0.029778, 0.000000, -0.982557, -22.028389, -3.869843, -54.507030, 3.110367, -0.022564, -2.908579

149372601.320283, 0.000631, -0.001671, 0.000350, 0.029778, 0.000000, -0.982557, -22.027920, -3.861719, -54.525040, 3.110992, -0.022723, -2.910006

149372601.321298, 0.004906, -0.000144, 0.001571, 0.029778, 0.015516, -0.982557, -22.027544, -3.855220, -54.539444, 3.111335, -0.022879, -2.910718

149372601.322355, -0.001813, 0.001994, -0.000567, 0.029778, 0.015516, -0.982557, -22.027245, -3.850020, -54.550968, 3.111603, -0.023052, -2.911399

149372601.323356, 0.002157, 0.001077, -0.001788, 0.029778, -0.015483, -0.997673, -22.068077, -3.784636, -54.536865, 3.112526, -0.023246, -2.913513

149372601.324386, 0.007349, -0.000450, 0.001571, 0.029778, -0.015483, -0.997673, -22.100742, -3.732328, -54.525581, 3.113484, -0.023420, -2.915666

149372601.325460, -0.001814, 0.001993, 0.002182, 0.044666, 0.015516, -0.982557, -22.126875, -3.690483, -54.516556, 3.113703, -0.023887, -2.916542

149372601.326463, 0.000935, -0.001672, 0.000655, 0.044666, 0.015516, -0.982557, -22.147781, -3.677414, -54.555981, 3.113945, -0.024306, -2.917398

149372601.327523, -0.000898, 0.001688, -0.001178, 0.029778, 0.015516, -1.012789, -22.164507, -3.666959, -54.587521, 3.114180, -0.024429, -2.918122

149372601.328542, 0.001851, 0.000161, -0.001788, 0.029778, 0.015516, -1.012789, -22.177887, -3.658595, -54.612755, 3.114438, -0.024534, -2.918836

149372601.329571, 0.000018, -0.001977, 0.000044, -0.000000, 0.031033, -0.952324, -22.188591, -3.651904, -54.632942, 3.114326, -0.024024, -2.918491

149372601.330595, 0.001545, 0.000771, 0.000044, -0.000000, 0.031033, -0.952324, -22.135546, -3.687368, -54.649090, 3.114231, -0.023553, -2.918111

149372601.331639, 0.002156, 0.001688, 0.000044, -0.000000, 0.031033, -1.012789, -22.093109, -3.715739, -54.662010, 3.114184, -0.023100, -2.917795

149372601.332649, -0.000898, -0.001366, -0.001178, 0.014889, 0.046549, -0.982557, -22.059160, -3.738435, -54.672344, 3.113772, -0.022935, -2.916867

149372601.333673, 0.000629, -0.002588, -0.001177, 0.014889, 0.046549, -0.982557, -22.093609, -3.695368, -54.703938, 3.113385, -0.022761, -2.916000

149372601.334698, 0.000629, 0.001993, 0.002793, 0.029778, 0.046549, -0.982557, -22.121168, -3.660914, -54.729214, 3.113011, -0.022938, -2.915399

149372601.335792, -0.000898, -0.000450, -0.000567, 0.029778, 0.046549, -0.982557, -22.143215, -3.633351, -54.749432, 3.112629, -0.023085, -2.914802

149372601.336775, -0.001203, 0.001077, -0.001177, 0.029778, 0.046549, -0.997673, -22.140318, -3.733750, -54.812256, 3.112266, -0.023235, -2.914155

149372601.337786, -0.002730, -0.000450, 0.000960, 0.029778, 0.046549, -0.997673, -22.138000, -3.814069, -54.862514, 3.111896, -0.023368, -2.913478

149372601.338812, -0.000287, -0.000145, -0.000567, 0.029778, 0.031033, -0.982557, -22.136147, -3.878324, -54.902721, 3.111855, -0.023505, -2.913402

149372601.339886, 0.003073, -0.000145, 0.000960, 0.029778, 0.031033, -0.982557, -22.134663, -3.929728, -54.934887, 3.111851, -0.023639, -2.913302

149372601.340909, 0.001240, 0.001688, -0.001788, 0.014889, 0.046549, -0.967441, -22.133476, -3.970851, -54.960621, 3.111493, -0.023499, -2.912247

149372601.341941, -0.001814, 0.004131, -0.000872, 0.014889, 0.046549, -0.967441, -22.132526, -4.003749, -54.981205, 3.111110, -0.023387, -2.911193

149372601.342966, -0.006090, -0.000756, -0.000261, 0.029778, 0.046549, -0.997673, -22.131767, -4.030068, -54.997673, 3.110729, -0.023514, -2.910388

149372601.344009, -0.005478, 0.000466, -0.004537, 0.029778, 0.046549, -0.997673, -22.069550, -3.969491, -54.917553, 3.110359, -0.023649, -2.909591

149372601.345029, -0.003951, 0.003825, -0.001177, 0.014889, 0.046549, -0.997673, -22.019775, -3.921029, -54.853455, 3.110008, -0.023519, -2.908692

149372601.346055, -0.007615, 0.000160, 0.000045, 0.014889, 0.046549, -0.997673, -21.979956, -3.882259, -54.802177, 3.109627, -0.023354, -2.907847

149372601.347090, 0.000326, -0.000451, -0.000566, 0.059555, 0.000000, -0.997673, -21.989174, -3.892060, -54.807804, 3.110240, -0.024100, -2.909441

149372601.348121, 0.001242, 0.001381, -0.002093, 0.059555, 0.000000, -0.997673, -21.996548, -3.899900, -54.812305, 3.110851, -0.024847, -2.910983

149372601.349145, -0.001812, -0.000146, -0.001177, 0.014889, 0.031033, -0.982557, -22.002447, -3.906173, -54.815907, 3.110815, -0.024652, -2.910743

149372601.350160, -0.000590, -0.000451, 0.002794, 0.014889, 0.031033, -0.982557, -22.027702, -3.870374, -54.772141, 3.110793, -0.024458, -2.910584

149372601.351187, 0.003686, -0.002284, 0.001877, 0.014889, 0.031033, -0.997673, -22.047907, -3.841736, -54.737125, 3.110824, -0.024245, -2.910467

149372601.352250, -0.002728, 0.003519, -0.002093, 0.014889, 0.031033, -0.997673, -22.064072, -3.818825, -54.709114, 3.110788, -0.024095, -2.910333

149372601.353263, 0.001853, -0.002284, -0.001482, 0.029778, 0.031033, -0.967441, -22.077003, -3.800496, -54.686707, 3.110781, -0.024204, -2.910350

149372601.354292, 0.003074, 0.001381, -0.001787, 0.029778, 0.031033, -0.967441, -22.087349, -3.765425, -54.692104, 3.110786, -0.024347, -2.910392

149372601.355326, -0.002728, 0.002297, -0.000566, 0.029778, 0.062065, -0.967441, -22.095625, -3.737368, -54.696423, 3.110097, -0.024519, -2.909101

149372601.356347, -0.000896, 0.002908, 0.001267, 0.029778, 0.062065, -0.967441, -22.102245, -3.714922, -54.699875, 3.109441, -0.024692, -2.907874

149372601.357373, 0.000021, 0.003213, -0.000260, 0.029778, 0.015516, -0.967441, -22.107542, -3.737782, -54.702637, 3.109761, -0.024852, -2.908710

149372601.358405, 0.004907, 0.002602, 0.000961, 0.029778, 0.015516, -0.967441, -22.111778, -3.756070, -54.704845, 3.110125, -0.025003, -2.909527

149372601.359431, 0.000936, -0.001979, -0.000260, 0.029778, 0.015516, -0.967441, -22.115168, -3.770700, -54.706615, 3.110440, -0.025104, -2.910306

149372601.360458, 0.001852, -0.003811, 0.000351, 0.014889, 0.031033, -0.982557, -22.158953, -3.823221, -54.661385, 3.110450, -0.024867, -2.910200

149372601.361484, 0.004906, -0.004116, 0.000045, 0.014889, 0.031033, -0.982557, -22.193981, -3.865237, -54.625198, 3.110490, -0.024631, -2.910067

149372601.362557, 0.008265, -0.001673, -0.000260, 0.029778, 0.031033, -0.982557, -22.222004, -3.898850, -54.596249, 3.110568, -0.024726, -2.910068

149372601.363543, 0.000324, -0.000451, 0.002794, 0.029778, 0.031033, -0.982557, -22.223885, -3.966557, -54.619736, 3.110561, -0.024833, -2.910045

149372601.364621, 0.003378, 0.002298, 0.002183, 0.014889, 0.046549, -0.967441, -22.225389, -4.020723, -54.638527, 3.110251, -0.024677, -2.909088

149372601.365603, 0.001545, -0.001062, -0.001177, 0.014889, 0.046549, -0.967441, -22.226593, -4.064055, -54.653561, 3.109927, -0.024488, -2.908082

149372601.366683, -0.000288, 0.001687, -0.001177, 0.014889, 0.046549, -0.967441, -22.227556, -4.098722, -54.665585, 3.109591, -0.024332, -2.907065

149372601.367669, 0.001850, 0.000465, -0.001482, 0.014889, 0.046549, -0.967441, -22.207790, -4.044821, -54.628559, 3.109283, -0.024164, -2.906108

149372601.368703, 0.005209, 0.001076, -0.001482, 0.014889, 0.031033, -0.982557, -22.191978, -4.001701, -54.598938, 3.109349, -0.023994, -2.905927

149372601.369775, 0.000933, 0.001076, -0.001482, 0.014889, 0.031033, -0.982557, -22.179329, -3.967205, -54.575241, 3.109371, -0.023828, -2.905776

149372601.370811, 0.001544, 0.005351, -0.002092, 0.029778, 0.015516, -0.967441, -22.169209, -3.960017, -54.649578, 3.109708, -0.024026, -2.906465

149372601.371796, 0.001238, 0.001991, 0.000351, 0.029778, 0.015516, -0.967441, -22.161112, -3.954266, -54.709049, 3.110034, -0.024185, -2.907169

149372601.372856, 0.002765, 0.001685, -0.001481, 0.014889, 0.031033, -0.982557, -22.154634, -3.949665, -54.756626, 3.110062, -0.024022, -2.906998

149372601.373873, 0.001849, 0.000464, -0.003008, 0.014889, 0.031033, -0.982557, -22.149452, -3.905168, -54.701393, 3.110078, -0.023848, -2.906854

149372601.374916, -0.000900, 0.002296, -0.000259, 0.014889, 0.015516, -0.997673, -22.145308, -3.869571, -54.657204, 3.110391, -0.023698, -2.907492

149372601.375917, -0.000900, -0.000453, -0.000565, 0.014889, 0.015516, -0.997673, -22.141991, -3.841093, -54.621853, 3.110698, -0.023523, -2.908139

149372601.376974, -0.002121, -0.000147, -0.001176, 0.044666, 0.015516, -0.982557, -22.077728, -3.920351, -54.616898, 3.110969, -0.023965, -2.908942

149372601.377982, -0.003343, 0.000158, -0.001175, 0.044666, 0.015516, -0.982557, -22.026320, -3.983758, -54.612930, 3.111224, -0.024401, -2.909671

149372601.379044, 0.001239, -0.000453, -0.001481, 0.014889, 0.031033, -0.982557, -21.985191, -4.034483, -54.609756, 3.111211, -0.024210, -2.909349

149372601.380058, -0.000289, 0.000463, 0.000352, 0.014889, 0.031033, -0.982557, -21.952290, -4.075064, -54.607220, 3.111183, -0.024034, -2.909013

149372601.381084, -0.002732, 0.001990, 0.000352, 0.014889, 0.031033, -0.982557, -21.925968, -4.046303, -54.605190, 3.111131, -0.023877, -2.908701

149372601.382104, -0.002426, 0.000158, -0.001481, 0.014889, 0.031033, -0.982557, -21.904911, -4.023295, -54.603565, 3.111083, -0.023703, -2.908392

149372601.383146, -0.002426, 0.002906, -0.002397, 0.014889, 0.015516, -0.967441, -21.888065, -4.004889, -54.602264, 3.111348, -0.023569, -2.908801

149372601.384189, -0.000899, 0.001074, 0.000658, 0.014889, 0.015516, -0.967441, -21.915661, -3.928939, -54.647873, 3.111625, -0.023420, -2.909302

149372601.385221, 0.000323, -0.001064, -0.002091, 0.029778, 0.031033, -0.982557, -21.937738, -3.868179, -54.684361, 3.111596, -0.023545, -2.909270

149372601.386257, -0.001509, -0.001370, -0.000869, 0.029778, 0.031033, -0.982557, -21.955400, -3.819571, -54.713551, 3.111549, -0.023665, -2.909292

149372601.387243, -0.002425, 0.000463, -0.004229, 0.029778, 0.031033, -0.982557, -21.969530, -3.739869, -54.736904, 3.111494, -0.023800, -2.909347

149372601.388316, 0.000324, 0.001074, -0.000869, 0.029778, 0.046549, -0.997673, -21.980833, -3.676106, -54.755585, 3.111168, -0.023935, -2.908825

149372601.389320, 0.000018, 0.003517, -0.003006, 0.029778, 0.046549, -0.997673, -21.989876, -3.625097, -54.770531, 3.110845, -0.024090, -2.908335

149372601.390345, -0.002731, 0.000157, -0.003311, -0.000000, 0.046549, -0.982557, -21.997110, -3.584289, -54.782486, 3.110476, -0.023616, -2.907491

149372601.391373, 0.006126, -0.000759, 0.000048, -0.000000, 0.046549, -0.982557, -21.982361, -3.633276, -54.768726, 3.110203, -0.023142, -2.906654

149372601.392425, -0.000593, -0.000148, -0.003006, 0.014889, 0.015516, -0.982557, -21.970562, -3.672465, -54.757717, 3.110511, -0.022986, -2.907394

149372601.393448, 0.001239, 0.001684, 0.001576, 0.014889, 0.015516, -0.982557, -21.961123, -3.703816, -54.748913, 3.110833, -0.022852, -2.908138

149372601.394480, -0.002426, 0.000768, 0.001270, 0.044666, 0.062065, -0.982557, -22.015179, -3.749305, -54.671898, 3.110174, -0.023326, -2.907109

149372601.395514, -0.000899, -0.000454, 0.001575, 0.044666, 0.062065, -0.982557, -22.058424, -3.785697, -54.610283, 3.109543, -0.023779, -2.906089

149372601.396531, 0.000323, 0.000462, -0.000868, 0.029778, 0.015516, -0.967441, -22.093021, -3.814810, -54.560993, 3.109864, -0.023929, -2.906892

149372601.397557, 0.002766, 0.001073, 0.003102, 0.029778, 0.015516, -0.967441, -22.100163, -3.797284, -54.544884, 3.110203, -0.024084, -2.907733

149372601.398629, -0.000288, 0.001989, 0.000659, 0.029778, 0.031033, -0.982557, -22.105875, -3.783263, -54.531998, 3.110196, -0.024229, -2.907862

149372601.399631, 0.002461, 0.000767, 0.001575, 0.029778, 0.031033, -0.982557, -22.110445, -3.772047, -54.521690, 3.110217, -0.024358, -2.908007

149372601.400665, -0.000899, 0.003211, 0.000048, 0.029778, 0.031033, -0.967441, -22.114101, -3.783482, -54.536766, 3.110194, -0.024518, -2.908108

149372601.401678, -0.003342, 0.001683, 0.000353, 0.029778, 0.031033, -0.967441, -22.117027, -3.792630, -54.548828, 3.110147, -0.024660, -2.908203

149372601.402712, -0.005785, -0.002898, -0.001479, 0.029778, 0.031033, -0.997673, -22.119368, -3.799948, -54.558475, 3.110095, -0.024733, -2.908306

149372601.403766, -0.003952, -0.003508, 0.000048, 0.029778, 0.031033, -0.997673, -22.121239, -3.805803, -54.566193, 3.110062, -0.024798, -2.908418

149372601.404778, 0.000324, -0.001981, -0.000868, 0.029778, 0.031033, -0.997673, -22.122736, -3.851303, -54.572369, 3.110073, -0.024878, -2.908482

149372601.405827, 0.001240, 0.002600, -0.003006, 0.029778, 0.031033, -0.997673, -22.123934, -3.887703, -54.577309, 3.110094, -0.025003, -2.908493

149372601.406835, -0.002119, 0.001378, 0.000354, -0.000000, 0.031033, -0.982557, -22.124893, -3.916823, -54.581261, 3.110067, -0.024517, -2.908168

149372601.407894, 0.002157, 0.003211, 0.002186, -0.000000, 0.031033, -0.982557, -22.084587, -3.899303, -54.607746, 3.110085, -0.024061, -2.907873

149372601.408949, 0.000019, -0.000760, 0.000659, -0.000000, 0.046549, -0.997673, -22.052343, -3.885287, -54.628933, 3.109772, -0.023579, -2.906879

149372601.409931, -0.001508, 0.001378, 0.000353, -0.000000, 0.046549, -0.997673, -22.026548, -3.874074, -54.645885, 3.109450, -0.023128, -2.905903

149372601.410949, -0.002730, 0.001378, 0.000048, 0.029778, 0.031033, -0.982557, -22.046984, -3.865103, -54.682770, 3.109434, -0.023284, -2.905982

149372601.411990, -0.001203, 0.001378, -0.001174, 0.029778, 0.031033, -0.982557, -22.063332, -3.857927, -54.712276, 3.109432, -0.023438, -2.906055

149372601.413010, 0.000325, 0.000156, 0.000353, 0.029778, 0.031033, -0.982557, -22.076410, -3.852185, -54.735882, 3.109447, -0.023576, -2.906150

149372601.414034, -0.006394, -0.002593, -0.001174, 0.029778, 0.031033, -0.982557, -22.086874, -3.847593, -54.731441, 3.109394, -0.023683, -2.906234

149372601.415091, -0.005172, 0.000767, 0.000048, 0.014889, 0.046549, -0.967441, -22.095245, -3.843918, -54.727890, 3.109020, -0.023531, -2.905440

149372601.416127, -0.000896, 0.000461, 0.000964, 0.014889, 0.046549, -0.967441, -22.101942, -3.840979, -54.725048, 3.108697, -0.023379, -2.904675

149372601.417151, 0.001242, -0.000149, 0.001880, 0.014889, 0.046549, -0.967441, -22.107300, -3.838627, -54.722775, 3.108404, -0.023224, -2.903938

149372601.418205, 0.005213, -0.000149, -0.001174, -0.031260, 0.031033, -0.967441, -22.111586, -3.795930, -54.720959, 3.108464, -0.022111, -2.903353

149372601.419192, 0.001547, 0.002905, -0.000258, -0.031260, 0.031033, -0.967441, -22.115013, -3.761772, -54.719505, 3.108486, -0.021051, -2.902821

149372601.420228, 0.001547, -0.001371, 0.000048, 0.029778, 0.046549, -0.997673, -22.117756, -3.734446, -54.718342, 3.108233, -0.021215, -2.902424

149372601.421271, 0.003685, -0.000150, -0.004533, 0.029778, 0.046549, -0.997673, -22.078878, -3.773809, -54.717411, 3.108007, -0.021387, -2.901949

149372601.422305, -0.001813, 0.002599, -0.002395, 0.014889, 0.046549, -0.982557, -22.047775, -3.805300, -54.716667, 3.107711, -0.021291, -2.901266

149372601.423336, -0.000286, 0.000766, -0.001784, 0.014889, 0.046549, -0.982557, -22.022894, -3.830492, -54.716072, 3.107436, -0.021180, -2.900578

149372601.424359, -0.004561, 0.001072, 0.001576, 0.029778, 0.031033, -0.982557, -22.064596, -3.809830, -54.738918, 3.107441, -0.021373, -2.900826

149372601.425434, 0.001547, 0.001988, -0.000562, 0.029778, 0.031033, -0.982557, -22.097958, -3.793300, -54.757198, 3.107508, -0.021572, -2.901065

149372601.426417, 0.006739, 0.001682, 0.003713, 0.029778, 0.031033, -0.982557, -22.124647, -3.780076, -54.771820, 3.107623, -0.021764, -2.901357

149372601.427478, 0.003074, -0.001067, 0.003713, 0.029778, 0.031033, -0.982557, -22.104927, -3.810313, -54.713547, 3.107702, -0.021925, -2.901619

149372601.428521, 0.000630, 0.000155, 0.003102, 0.029778, 0.015516, -0.997673, -22.089151, -3.834503, -54.666927, 3.108073, -0.022094, -2.902548

149372601.429513, 0.000325, 0.004431, 0.001574, 0.029778, 0.015516, -0.997673, -22.076530, -3.853855, -54.629631, 3.108432, -0.022300, -2.903422

149372601.430569, 0.000325, 0.001682, -0.000258, 0.029778, 0.015516, -0.967441, -22.066433, -3.869336, -54.599796, 3.108775, -0.022493, -2.904235

149372601.431600, -0.001813, 0.001071, 0.000353, 0.029778, 0.015516, -0.967441, -22.017282, -3.861313, -54.552605, 3.109089, -0.022676, -2.905036

149372601.432615, 0.000325, -0.000151, -0.000258, 0.029778, 0.031033, -0.967441, -21.977962, -3.854895, -54.514851, 3.109100, -0.022835, -2.905112

149372601.433623, 0.003073, 0.001987, -0.001785, 0.029778, 0.031033, -0.967441, -21.946507, -3.849760, -54.484646, 3.109138, -0.023013, -2.905169

149372601.434684, 0.002462, 0.002903, 0.002796, 0.059555, 0.062065, -0.982557, -22.003487, -3.825244, -54.530453, 3.108568, -0.023805, -2.904338

149372601.435718, 0.002767, 0.002292, 0.001269, 0.059555, 0.062065, -0.982557, -22.049070, -3.805632, -54.567101, 3.108011, -0.024573, -2.903530

149372601.436730, 0.000018, 0.000153, 0.000047, 0.014889, 0.031033, -0.982557, -22.085537, -3.789942, -54.596416, 3.108052, -0.024386, -2.903570

149372601.437763, 0.004599, -0.000763, -0.002396, 0.014889, 0.031033, -0.982557, -22.073639, -3.777389, -54.526573, 3.108137, -0.024193, -2.903594

149372601.438797, 0.003377, 0.000764, 0.001269, 0.029778, 0.031033, -0.967441, -22.064119, -3.767348, -54.470699, 3.108199, -0.024333, -2.903801

149372601.439821, -0.000288, -0.000152, 0.000353, 0.029778, 0.031033, -0.967441, -22.056505, -3.759314, -54.426003, 3.108222, -0.024460, -2.904000

149372601.440871, 0.001850, -0.001679, -0.001174, 0.014889, 0.046549, -0.982557, -22.050413, -3.793704, -54.390244, 3.107958, -0.024260, -2.903311

149372601.441894, 0.002766, 0.000764, -0.001785, 0.014889, 0.046549, -0.982557, -22.025003, -3.821215, -54.431610, 3.107708, -0.024089, -2.902600

149372601.442926, -0.001510, 0.000154, 0.000658, -0.000000, 0.046549, -0.982557, -22.004675, -3.843225, -54.464703, 3.107413, -0.023615, -2.901708

149372601.443938, 0.001850, -0.000152, 0.000964, -0.000000, 0.046549, -0.982557, -21.988413, -3.860832, -54.491177, 3.107158, -0.023148, -2.900818

149372601.444964, 0.001544, 0.001070, 0.000963, -0.000000, 0.046549, -0.982557, -22.037012, -3.834102, -54.512356, 3.106906, -0.022701, -2.899979

149372601.445993, -0.000899, -0.000152, 0.001574, 0.029778, 0.046549, -0.997673, -22.075891, -3.812718, -54.529297, 3.106660, -0.022845, -2.899589

149372601.447049, -0.003342, -0.002595, -0.002091, 0.029778, 0.046549, -0.997673, -22.106995, -3.795610, -54.542850, 3.106393, -0.022959, -2.899190

149372601.448085, 0.002461, -0.003206, -0.000258, 0.029778, 0.031033, -0.967441, -22.070269, -3.781924, -54.530373, 3.106479, -0.023082, -2.899459

149372601.449111, 0.000017, -0.000762, 0.002796, 0.029778, 0.031033, -0.967441, -22.040888, -3.770976, -54.520390, 3.106540, -0.023229, -2.899755

149372601.450153, 0.000628, -0.002289, 0.000963, 0.029778, 0.031033, -0.982557, -22.017384, -3.762217, -54.512402, 3.106615, -0.023348, -2.900048

149372601.451159, 0.000628, -0.000456, 0.000658, 0.029778, 0.031033, -0.982557, -22.039652, -3.734801, -54.552658, 3.106689, -0.023483, -2.900357

149372601.452187, 0.000628, 0.003208, -0.000564, 0.014889, 0.046549, -0.997673, -22.057467, -3.712869, -54.584866, 3.106458, -0.023346, -2.899835

149372601.453208, 0.001544, 0.008095, -0.002396, 0.014889, 0.046549, -0.997673, -22.071718, -3.695323, -54.610630, 3.106241, -0.023260, -2.899321

149372601.454250, -0.002732, 0.000459, -0.003618, 0.014889, 0.046549, -0.967441, -22.083120, -3.681287, -54.631241, 3.105956, -0.023109, -2.898760

149372601.455288, 0.002766, -0.003512, 0.000658, 0.014889, 0.046549, -0.967441, -22.153851, -3.751690, -54.671055, 3.105734, -0.022922, -2.898213

149372601.456300, 0.005514, -0.000152, 0.000047, 0.029778, 0.031033, -0.967441, -22.210436, -3.808012, -54.702908, 3.105863, -0.023078, -2.898506

149372601.457349, 0.008873, -0.000457, 0.002185, 0.029778, 0.031033, -0.967441, -22.255703, -3.853071, -54.728390, 3.106027, -0.023228, -2.898786

149372601.458354, 0.009483, -0.000457, 0.001574, 0.029778, 0.031033, -0.952324, -22.250843, -3.848301, -54.678802, 3.106179, -0.023385, -2.899041

149372601.459415, 0.007038, -0.001068, 0.001269, 0.029778, 0.031033, -0.952324, -22.246956, -3.844485, -54.639133, 3.106309, -0.023531, -2.899292

149372601.460436, 0.002457, -0.000152, 0.001268, 0.014889, 0.031033, -0.982557, -22.243847, -3.841432, -54.607399, 3.106408, -0.023363, -2.899417

149372601.461462, 0.003067, 0.000154, -0.000869, 0.014889, 0.031033, -0.982557, -22.159214, -3.818582, -54.558685, 3.106512, -0.023200, -2.899522

149372601.462476, -0.000598, 0.001070, -0.002396, 0.029778, 0.031033, -0.967441, -22.091507, -3.800302, -54.519714, 3.106564, -0.023361, -2.899751

149372601.463513, -0.001514, -0.000762, 0.000353, 0.029778, 0.031033, -0.967441, -22.037342, -3.785678, -54.488537, 3.106607, -0.023502, -2.900005

149372601.464545, -0.003041, -0.001679, 0.000963, 0.014889, 0.031033, -0.982557, -22.055618, -3.855611, -54.580215, 3.106645, -0.023318, -2.900066

149372601.465570, 0.000319, -0.003511, 0.001269, 0.014889, 0.031033, -0.982557, -22.070240, -3.911557, -54.653561, 3.106716, -0.023120, -2.900084

149372601.466626, 0.005816, -0.000762, -0.001786, 0.014889, 0.031033, -0.967441, -22.081938, -3.956315, -54.712234, 3.106832, -0.022957, -2.900014

149372601.467622, -0.003041, -0.002289, -0.000258, 0.014889, 0.031033, -0.967441, -22.091295, -3.992121, -54.759174, 3.106856, -0.022783, -2.899933

149372601.468695, -0.001514, 0.002903, -0.001480, 0.029778, 0.031033, -0.982557, -22.098782, -3.939132, -54.703430, 3.106902, -0.022963, -2.900065

149372601.469699, -0.001819, 0.001071, -0.000869, 0.029778, 0.031033, -0.982557, -22.104771, -3.896742, -54.658836, 3.106946, -0.023120, -2.900238

149372601.470711, -0.001819, -0.000762, -0.001480, -0.000000, 0.015516, -0.982557, -22.109562, -3.862830, -54.623161, 3.107311, -0.022655, -2.900845

149372601.471745, 0.001235, 0.003208, 0.001269, -0.000000, 0.015516, -0.982557, -22.072323, -3.815292, -54.594620, 3.107701, -0.022241, -2.901500

149372601.472796, 0.001235, 0.002597, 0.001269, -0.000000, 0.015516, -0.982557, -22.042532, -3.777261, -54.571785, 3.108083, -0.021829, -2.902169

149372601.473821, -0.000598, -0.001679, -0.000258, 0.044666, 0.031033, -0.982557, -22.018698, -3.746837, -54.553520, 3.108111, -0.022284, -2.902558

149372601.474850, -0.002735, 0.001681, 0.002796, 0.044666, 0.031033, -0.982557, -22.061239, -3.763314, -54.585552, 3.108118, -0.022765, -2.902963

149372601.475928, 0.002762, 0.006567, 0.001574, 0.029778, 0.000000, -0.997673, -22.095272, -3.776495, -54.611179, 3.108811, -0.023002, -2.904589

149372601.476904, 0.002151, -0.002596, 0.001574, 0.029778, 0.000000, -0.997673, -22.122499, -3.787041, -54.631680, 3.109482, -0.023140, -2.906179

149372601.477936, 0.000624, -0.000152, 0.000657, -0.000000, 0.015516, -0.967441, -22.144281, -3.836293, -54.624756, 3.109816, -0.022680, -2.906705

149372601.479006, -0.006095, 0.002902, 0.000657, -0.000000, 0.015516, -0.967441, -22.100098, -3.875695, -54.619217, 3.110072, -0.022261, -2.907177

149372601.480038, -0.000597, 0.001374, 0.006154, -0.000000, 0.031033, -0.982557, -22.064751, -3.907217, -54.614788, 3.110063, -0.021831, -2.906931

149372601.481021, 0.002457, -0.000153, -0.001481, -0.000000, 0.031033, -0.982557, -22.036474, -3.932434, -54.611244, 3.110082, -0.021393, -2.906586

149372601.482078, 0.004289, 0.003818, -0.000565, 0.014889, 0.031033, -0.997673, -21.993315, -3.932200, -54.631733, 3.110134, -0.021303, -2.906439

149372601.483111, 0.006426, 0.000152, 0.000046, 0.014889, 0.031033, -0.997673, -21.958788, -3.932012, -54.648125, 3.110206, -0.021177, -2.906296

149372601.484113, 0.003677, -0.000764, 0.004627, 0.029778, 0.031033, -0.997673, -21.931166, -3.931862, -54.661236, 3.110249, -0.021343, -2.906354

149372601.485170, 0.004898, -0.003818, 0.001267, 0.029778, 0.031033, -0.997673, -21.970678, -3.911334, -54.648403, 3.110305, -0.021473, -2.906404

149372601.486201, 0.002149, -0.001680, -0.000871, 0.014889, 0.046549, -0.982557, -22.002289, -3.894912, -54.638138, 3.110003, -0.021336, -2.905569

149372601.487221, 0.002760, -0.001374, -0.000260, 0.014889, 0.046549, -0.982557, -22.027576, -3.881774, -54.629925, 3.109713, -0.021204, -2.904773

149372601.488236, 0.010089, -0.004123, -0.002398, 0.029778, 0.031033, -0.982557, -22.027269, -3.932488, -54.623352, 3.109819, -0.021344, -2.904796

149372601.489275, 0.001842, -0.000457, -0.002397, 0.029778, 0.031033, -0.982557, -22.027025, -3.973059, -54.618095, 3.109841, -0.021517, -2.904784

149372601.490333, -0.000601, 0.004124, -0.000565, 0.014889, 0.031033, -0.982557, -22.026829, -4.005516, -54.613892, 3.109838, -0.021432, -2.904601

149372601.491356, 0.008256, 0.001986, -0.001176, 0.014889, 0.031033, -0.982557, -22.026672, -4.031482, -54.610527, 3.109923, -0.021326, -2.904396

149372601.492353, 0.002452, -0.001069, -0.000259, 0.029778, 0.031033, -0.967441, -22.047083, -4.011438, -54.607834, 3.109939, -0.021504, -2.904371

149372601.493393, -0.007016, -0.001985, -0.003008, 0.029778, 0.031033, -0.967441, -22.063412, -3.995403, -54.605682, 3.109859, -0.021667, -2.904335

149372601.494421, -0.005182, 0.001069, -0.000259, 0.014889, 0.031033, -0.982557, -22.076475, -3.982575, -54.603958, 3.109809, -0.021548, -2.904195

149372601.495464, 0.001842, -0.002901, 0.000963, 0.014889, 0.031033, -0.982557, -22.107462, -3.972312, -54.672554, 3.109832, -0.021390, -2.904084

149372601.496500, 0.001842, 0.002597, -0.000564, 0.029778, 0.062065, -0.982557, -22.132252, -3.964102, -54.727428, 3.109230, -0.021613, -2.902788

149372601.497531, -0.002128, 0.003207, -0.001175, 0.029778, 0.062065, -0.982557, -22.152082, -3.957534, -54.771328, 3.108599, -0.021836, -2.901520

149372601.498554, -0.003961, 0.003818, -0.000259, -0.000000, 0.031033, -0.952324, -22.147411, -3.911463, -54.713154, 3.108566, -0.021438, -2.901287

149372601.499586, 0.001842, 0.002291, 0.000657, -0.000000, 0.031033, -0.952324, -22.143675, -3.874607, -54.666615, 3.108591, -0.021033, -2.901100

149372601.500623, -0.000296, 0.001680, 0.000657, -0.000000, 0.000000, -0.997673, -22.140686, -3.845122, -54.629383, 3.109262, -0.020652, -2.902484

149372601.501652, 0.000926, 0.002596, 0.002184, 0.044666, 0.000000, -0.997673, -22.117758, -3.862350, -54.599598, 3.109899, -0.021186, -2.904157

149372601.502696, 0.004590, 0.006260, 0.002184, 0.044666, 0.000000, -0.997673, -22.099415, -3.876132, -54.575768, 3.110561, -0.021747, -2.905782

149372601.503686, -0.005489, 0.002595, -0.001176, -0.000000, 0.031033, -0.997673, -22.084742, -3.887158, -54.556705, 3.110504, -0.021337, -2.905535

149372601.504750, -0.001823, 0.002595, 0.004627, -0.000000, 0.031033, -0.997673, -22.073002, -3.895979, -54.541454, 3.110483, -0.020939, -2.905343

149372601.505773, 0.002147, 0.000457, 0.004932, 0.014889, 0.015516, -0.982557, -22.043074, -3.862219, -54.505928, 3.110814, -0.020834, -2.906045

149372601.506811, -0.001823, 0.001373, -0.002398, 0.014889, 0.015516, -0.982557, -22.019133, -3.835212, -54.477509, 3.111096, -0.020738, -2.906677

149372601.507824, -0.002434, 0.000762, 0.000656, 0.029778, 0.031033, -0.967441, -21.999979, -3.813605, -54.454773, 3.111040, -0.020946, -2.906768

149372601.508891, 0.000009, -0.001987, -0.001176, 0.029778, 0.031033, -0.967441, -21.984655, -3.816729, -54.459908, 3.111010, -0.021121, -2.906833

149372601.509905, 0.003063, 0.001068, 0.001267, 0.014889, 0.031033, -0.982557, -21.972397, -3.819227, -54.464016, 3.111020, -0.021013, -2.906775

149372601.510919, 0.001536, -0.001681, -0.001787, 0.014889, 0.031033, -0.982557, -21.962591, -3.821226, -54.467304, 3.111015, -0.020879, -2.906684

149372601.511988, 0.000620, -0.002292, -0.001176, 0.044666, 0.015516, -0.982557, -22.016354, -3.802417, -54.539906, 3.111306, -0.021352, -2.907600

149372601.512962, -0.001213, 0.000152, -0.001481, 0.044666, 0.015516, -0.982557, -22.059364, -3.787370, -54.597988, 3.111573, -0.021841, -2.908514

149372601.514024, -0.000296, -0.000154, -0.000565, 0.014889, 0.031033, -0.967441, -22.093773, -3.775332, -54.644451, 3.111528, -0.021711, -2.908440

149372601.515065, -0.001823, 0.003511, 0.001878, 0.014889, 0.031033, -0.967441, -22.080227, -3.765702, -54.588326, 3.111470, -0.021621, -2.908399

149372601.516096, 0.003369, 0.002594, 0.000046, 0.029778, 0.046549, -0.967441, -22.069391, -3.757998, -54.543427, 3.111148, -0.021835, -2.907815

149372601.517118, -0.003045, -0.001376, -0.001176, 0.029778, 0.046549, -0.967441, -22.060722, -3.751834, -54.507507, 3.110767, -0.022004, -2.907235

149372601.518124, 0.000009, -0.004124, 0.000351, 0.029778, 0.031033, -0.967441, -22.053787, -3.746903, -54.478771, 3.110742, -0.022138, -2.907375

149372601.519178, -0.006099, 0.001984, -0.001481, 0.029778, 0.031033, -0.967441, -22.068775, -3.763367, -54.525753, 3.110653, -0.022330, -2.907481

149372601.520214, -0.003350, 0.001373, 0.001878, 0.059555, 0.031033, -0.982557, -22.080765, -3.776538, -54.563339, 3.110600, -0.023108, -2.907908

149372601.521220, 0.001843, -0.003819, 0.001267, 0.059555, 0.031033, -0.982557, -22.090357, -3.787075, -54.593410, 3.110599, -0.023818, -2.908315

149372601.522239, 0.000315, 0.001373, 0.000656, 0.014889, 0.046549, -0.982557, -22.036421, -3.775096, -54.594143, 3.110272, -0.023665, -2.907562

149372601.523268, 0.004896, 0.002289, 0.002183, 0.014889, 0.046549, -0.982557, -21.993273, -3.765513, -54.594727, 3.109999, -0.023524, -2.906837

149372601.524311, 0.000009, 0.002595, 0.001267, 0.029778, 0.046549, -0.982557, -21.958754, -3.757846, -54.595196, 3.109686, -0.023690, -2.906297

149372601.525347, 0.002147, -0.002598, 0.002794, 0.029778, 0.046549, -0.982557, -21.972212, -3.731305, -54.618893, 3.109402, -0.023800, -2.905808

149372601.526377, 0.000620, -0.001681, -0.001177, 0.014889, 0.046549, -0.982557, -21.982979, -3.710072, -54.637852, 3.109102, -0.023614, -2.905128

149372601.527402, 0.006117, 0.001984, 0.001267, 0.014889, 0.046549, -0.982557, -21.991592, -3.693086, -54.653019, 3.108864, -0.023470, -2.904499

149372601.528464, 0.000619, -0.001681, -0.001788, 0.029778, 0.015516, -0.982557, -22.019020, -3.699905, -54.641830, 3.109206, -0.023596, -2.905412

149372601.529495, -0.002129, 0.000457, -0.000871, 0.029778, 0.015516, -0.982557, -22.040962, -3.705360, -54.632877, 3.109513, -0.023741, -2.906315

149372601.530508, -0.003045, -0.000765, -0.003009, 0.029778, 0.015516, -0.982557, -22.058516, -3.709724, -54.625717, 3.109805, -0.023871, -2.907179

149372601.531532, -0.003656, -0.001986, -0.002703, 0.029778, 0.031033, -0.967441, -22.072557, -3.713216, -54.619987, 3.109761, -0.023987, -2.907316

149372601.532580, 0.000009, 0.003817, 0.000046, 0.029778, 0.031033, -0.967441, -22.022182, -3.777233, -54.592079, 3.109756, -0.024162, -2.907418

149372601.533589, 0.000620, 0.002900, -0.001176, 0.014889, 0.000000, -0.982557, -21.981882, -3.828447, -54.569756, 3.110405, -0.024031, -2.908765

149372601.534646, 0.001842, -0.002292, 0.000046, 0.014889, 0.000000, -0.982557, -21.949642, -3.869418, -54.551895, 3.111053, -0.023850, -2.910059

149372601.535653, -0.004266, -0.000154, 0.000046, 0.029778, 0.015516, -0.967441, -21.985458, -3.820563, -54.537605, 3.111298, -0.023992, -2.910770

149372601.536664, 0.000926, 0.001373, 0.001267, 0.029778, 0.015516, -0.967441, -22.014112, -3.781478, -54.526176, 3.111591, -0.024146, -2.911515

149372601.537717, -0.000907, 0.001373, -0.001481, 0.029778, 0.031033, -0.982557, -22.037035, -3.750211, -54.517033, 3.111549, -0.024282, -2.911560

149372601.538749, -0.004877, -0.001071, -0.002397, 0.029778, 0.031033, -0.982557, -22.096447, -3.766013, -54.579689, 3.111469, -0.024391, -2.911593

149372601.539770, -0.001517, -0.001376, -0.002397, 0.014889, 0.031033, -0.982557, -22.143976, -3.778654, -54.629814, 3.111423, -0.024192, -2.911468

149372601.540807, 0.002759, -0.001987, -0.003008, 0.014889, 0.031033, -0.982557, -22.181999, -3.788768, -54.669914, 3.111422, -0.023990, -2.911336

149372601.541829, -0.002739, 0.000151, -0.003924, 0.014889, 0.015516, -0.967441, -22.212418, -3.796859, -54.701992, 3.111679, -0.023822, -2.911902

149372601.542853, 0.000621, -0.002292, 0.001879, 0.014889, 0.015516, -0.967441, -22.154608, -3.823739, -54.727657, 3.111966, -0.023635, -2.912483

149372601.543908, 0.004897, -0.005346, 0.000963, 0.029778, 0.031033, -0.967441, -22.108358, -3.845244, -54.748188, 3.111968, -0.023723, -2.912452

149372601.544935, -0.002739, 0.001068, -0.002702, 0.029778, 0.031033, -0.967441, -22.071360, -3.862448, -54.764614, 3.111891, -0.023873, -2.912362

149372601.545938, 0.000621, 0.002901, -0.001175, 0.014889, 0.015516, -0.982557, -22.041761, -3.896619, -54.731106, 3.112177, -0.023730, -2.912830

149372601.547030, -0.000601, -0.000459, 0.001880, 0.014889, 0.015516, -0.982557, -22.018082, -3.923955, -54.704300, 3.112445, -0.023557, -2.913295

149372601.548086, 0.000315, -0.001681, 0.001269, 0.014889, 0.046549, -0.982557, -21.999138, -3.945825, -54.682854, 3.112081, -0.023381, -2.912300

149372601.549060, -0.001212, 0.000763, -0.000259, 0.014889, 0.046549, -0.982557, -21.963446, -3.881688, -54.642372, 3.111709, -0.023231, -2.911353

149372601.550077, -0.006098, 0.002290, -0.002396, 0.029778, 0.031033, -0.967441, -21.934893, -3.830379, -54.609989, 3.111604, -0.023403, -2.911291

149372601.551137, 0.000316, 0.000457, -0.002701, 0.029778, 0.031033, -0.967441, -21.912050, -3.789331, -54.584084, 3.111566, -0.023553, -2.911255

149372601.552128, 0.000621, 0.000152, -0.004228, 0.014889, 0.015516, -0.997673, -21.975922, -3.858533, -54.586681, 3.111863, -0.023385, -2.911748

149372601.553179, 0.000316, 0.003206, -0.001785, 0.014889, 0.015516, -0.997673, -22.027020, -3.913895, -54.588760, 3.112151, -0.023251, -2.912215

149372601.554195, 0.001232, 0.003511, -0.000868, 0.044666, 0.031033, -0.997673, -22.067898, -3.958185, -54.590424, 3.112129, -0.023715, -2.912254

149372601.555237, 0.003981, 0.005954, 0.000048, 0.044666, 0.031033, -0.997673, -22.100599, -3.993617, -54.591751, 3.112137, -0.024195, -2.912279

149372601.556255, 0.007950, -0.001987, -0.001479, 0.014889, 0.046549, -0.982557, -22.085688, -3.981146, -54.592815, 3.111854, -0.024003, -2.911271

149372601.557292, 0.002147, 0.000151, -0.000563, 0.014889, 0.046549, -0.982557, -22.073759, -3.971169, -54.593666, 3.111520, -0.023835, -2.910296

149372601.558309, -0.001213, 0.000761, -0.003311, 0.014889, 0.046549, -0.982557, -22.064217, -3.963188, -54.594345, 3.111157, -0.023676, -2.909318

149372601.559350, 0.007339, 0.003204, -0.001478, 0.014889, 0.031033, -0.997673, -22.097654, -3.956803, -54.571568, 3.111218, -0.023533, -2.909110

149372601.560364, 0.003978, -0.000155, -0.003005, 0.014889, 0.031033, -0.997673, -22.124405, -3.951695, -54.553345, 3.111242, -0.023358, -2.908902

149372601.561408, 0.000924, -0.001377, -0.000256, 0.044666, 0.031033, -1.012789, -22.145805, -3.947608, -54.538765, 3.111244, -0.023758, -2.909051

149372601.562447, -0.000298, 0.000761, 0.001271, 0.044666, 0.031033, -1.012789, -22.101316, -3.964747, -54.573750, 3.111234, -0.024172, -2.909189

149372601.563462, -0.000298, 0.001983, 0.000965, 0.014889, 0.031033, -0.982557, -22.065725, -3.978458, -54.601738, 3.111206, -0.024012, -2.908965

149372601.564496, 0.003062, -0.002293, 0.001881, 0.014889, 0.031033, -0.982557, -22.037252, -3.989427, -54.624126, 3.111213, -0.023812, -2.908740

149372601.565534, 0.003367, -0.004431, 0.001270, 0.014889, 0.015516, -0.982557, -22.055548, -4.079835, -54.572067, 3.111541, -0.023597, -2.909159

149372601.566556, 0.006115, -0.001682, 0.001270, 0.014889, 0.015516, -0.982557, -22.070183, -4.152161, -54.530418, 3.111889, -0.023414, -2.909510

149372601.567583, 0.001839, 0.001983, 0.001270, 0.029778, 0.031033, -0.997673, -22.081892, -4.210022, -54.497101, 3.111881, -0.023563, -2.909282

149372601.568604, 0.001228, 0.001372, -0.000257, 0.029778, 0.031033, -0.997673, -22.091259, -4.256311, -54.470448, 3.111866, -0.023702, -2.909008

149372601.569649, -0.006407, 0.001983, 0.000659, 0.014889, 0.015516, -0.982557, -22.119289, -4.130077, -54.425800, 3.112081, -0.023554, -2.909384

149372601.570679, 0.001534, -0.004431, 0.001575, 0.014889, 0.015516, -0.982557, -22.141712, -4.029089, -54.390083, 3.112373, -0.023344, -2.909852

149372601.571706, -0.001215, -0.004125, -0.001784, 0.044666, 0.015516, -0.982557, -22.159651, -3.948299, -54.361507, 3.112621, -0.023749, -2.910608

149372601.572779, 0.000923, -0.002292, -0.002700, 0.044666, 0.015516, -0.982557, -22.174002, -3.883667, -54.408619, 3.112885, -0.024163, -2.911391

149372601.573787, 0.006115, 0.000457, -0.002395, 0.029778, 0.046549, -0.997673, -22.185482, -3.831962, -54.446308, 3.112588, -0.024285, -2.910744

149372601.574826, 0.000006, -0.002597, -0.000257, 0.029778, 0.046549, -0.997673, -22.194668, -3.790597, -54.476460, 3.112237, -0.024374, -2.910165

149372601.575833, -0.001826, 0.000762, 0.002187, 0.029778, 0.046549, -0.967441, -22.202015, -3.757506, -54.453934, 3.111847, -0.024514, -2.909598

149372601.576892, 0.001839, 0.000457, -0.000868, 0.029778, 0.046549, -0.967441, -22.207893, -3.731033, -54.435913, 3.111501, -0.024648, -2.909034

149372601.577883, 0.000311, 0.001984, -0.000867, 0.014889, 0.031033, -0.967441, -22.212597, -3.709854, -54.421497, 3.111465, -0.024482, -2.909029

149372601.578944, -0.000605, 0.000151, 0.000660, 0.014889, 0.031033, -0.967441, -22.216358, -3.754136, -54.363316, 3.111420, -0.024303, -2.909006

149372601.579976, -0.002437, 0.003205, -0.000867, 0.044666, 0.015516, -0.997673, -22.219368, -3.789561, -54.316769, 3.111678, -0.024750, -2.909925

149372601.581001, 0.003977, -0.001376, 0.000049, 0.044666, 0.015516, -0.997673, -22.221775, -3.817901, -54.279533, 3.111996, -0.025142, -2.910814

149372601.582026, -0.000910, 0.000151, 0.000965, 0.029778, 0.046549, -0.967441, -22.223701, -3.840574, -54.249744, 3.111620, -0.025262, -2.910168

149372601.583059, 0.001228, 0.001984, 0.000354, 0.029778, 0.046549, -0.967441, -22.204706, -3.858711, -54.319210, 3.111272, -0.025397, -2.909508

149372601.584107, -0.001216, 0.003205, -0.001478, 0.029778, 0.046549, -0.997673, -22.189510, -3.873221, -54.374783, 3.110934, -0.025523, -2.908876

149372601.585135, 0.001533, 0.000761, -0.000562, 0.029778, 0.046549, -0.997673, -22.177353, -3.884830, -54.419239, 3.110632, -0.025621, -2.908254

149372601.586140, 0.001227, -0.002293, -0.001478, 0.029778, 0.046549, -0.997673, -22.188164, -3.873708, -54.478130, 3.110331, -0.025686, -2.907646

149372601.587200, -0.001216, -0.002598, 0.002798, 0.014889, 0.031033, -0.997673, -22.196812, -3.864811, -54.525242, 3.110322, -0.025444, -2.907614

149372601.588223, -0.000300, -0.003208, 0.002187, 0.014889, 0.031033, -0.997673, -22.203732, -3.857693, -54.562931, 3.110323, -0.025203, -2.907582

149372601.589230, -0.000605, 0.000151, -0.000257, 0.014889, 0.031033, -0.982557, -22.168194, -3.831590, -54.546436, 3.110311, -0.025003, -2.907520

149372601.590251, -0.002743, 0.003816, 0.001270, 0.014889, 0.031033, -0.982557, -22.139765, -3.810709, -54.533241, 3.110278, -0.024845, -2.907486

149372601.591280, 0.001228, 0.003510, 0.000659, 0.014889, 0.046549, -0.982557, -22.117022, -3.794003, -54.522682, 3.109966, -0.024692, -2.906754

149372601.592304, -0.001521, -0.000766, 0.002492, 0.014889, 0.046549, -0.982557, -22.098825, -3.780638, -54.514236, 3.109634, -0.024499, -2.906064

149372601.593341, 0.003060, -0.000766, 0.001270, 0.014889, 0.031033, -0.982557, -22.125341, -3.769947, -54.530804, 3.109673, -0.024305, -2.906091

149372601.594375, -0.000299, 0.001372, -0.000563, 0.014889, 0.031033, -0.982557, -22.146555, -3.761394, -54.544056, 3.109677, -0.024136, -2.906110

149372601.595405, 0.000617, 0.000151, 0.003407, 0.014889, 0.031033, -0.982557, -22.163525, -3.754551, -54.554657, 3.109691, -0.023959, -2.906177

149372601.596456, -0.000299, 0.003815, -0.001174, 0.014889, 0.031033, -0.982557, -22.136028, -3.789893, -54.539818, 3.109694, -0.023822, -2.906161

149372601.597506, -0.002743, 0.000456, -0.000258, 0.029778, 0.046549, -0.967441, -22.114031, -3.818167, -54.527946, 3.109344, -0.023970, -2.905581

149372601.598512, -0.001521, -0.001988, 0.001880, 0.029778, 0.046549, -0.967441, -22.096434, -3.840786, -54.518448, 3.109015, -0.024090, -2.905014

149372601.599520, -0.002742, 0.003204, 0.000964, 0.014889, 0.046549, -0.997673, -22.082355, -3.777249, -54.487526, 3.108704, -0.023943, -2.904371

149372601.600554, -0.006101, -0.001377, -0.000258, 0.014889, 0.046549, -0.997673, -22.071093, -3.726419, -54.462788, 3.108365, -0.023752, -2.903769

149372601.601619, -0.002130, -0.002904, -0.001785, 0.014889, 0.031033, -0.997673, -22.062082, -3.685755, -54.442997, 3.108386, -0.023545, -2.903890

149372601.602641, 0.000008, -0.004125, -0.001479, 0.014889, 0.031033, -0.997673, -22.075411, -3.673632, -54.450489, 3.108428, -0.023331, -2.904025

149372601.603683, -0.001214, -0.000155, -0.001174, -0.000000, 0.031033, -0.967441, -22.086075, -3.663934, -54.456482, 3.108437, -0.022863, -2.903962

149372601.604704, -0.003657, 0.001373, -0.001174, -0.000000, 0.031033, -0.967441, -22.094604, -3.656175, -54.461277, 3.108421, -0.022418, -2.903908

149372601.605730, -0.003657, 0.000456, 0.000048, 0.029778, 0.046549, -0.967441, -22.101429, -3.649968, -54.465111, 3.108088, -0.022592, -2.903508

149372601.606759, -0.003962, 0.000151, -0.000257, 0.029778, 0.046549, -0.967441, -22.065817, -3.706227, -54.514828, 3.107759, -0.022760, -2.903059

149372601.607821, 0.001536, 0.002899, -0.002090, 0.014889, 0.015516, -0.982557, -22.037327, -3.751234, -54.554600, 3.108138, -0.022644, -2.903827

149372601.608812, 0.000314, 0.001067, -0.001784, 0.014889, 0.015516, -0.982557, -22.014534, -3.787240, -54.586418, 3.108496, -0.022510, -2.904550

149372601.609864, 0.002147, 0.001983, -0.002700, 0.044666, 0.062065, -0.997673, -21.996300, -3.795636, -54.611874, 3.107948, -0.022986, -2.903545

149372601.610895, 0.003368, 0.002288, -0.001478, 0.044666, 0.062065, -0.997673, -21.981712, -3.802353, -54.632236, 3.107423, -0.023456, -2.902564

149372601.611885, 0.001841, -0.001988, -0.001478, 0.014889, 0.015516, -0.982557, -21.970043, -3.807727, -54.648525, 3.107811, -0.023277, -2.903291

149372601.612953, 0.002757, -0.001988, -0.000257, 0.014889, 0.015516, -0.982557, -22.022316, -3.791618, -54.708206, 3.108202, -0.023100, -2.904036

149372601.613989, -0.000297, -0.001377, -0.001478, 0.014889, 0.015516, -0.982557, -22.064135, -3.778730, -54.755951, 3.108554, -0.022933, -2.904772

149372601.615010, 0.003367, -0.000766, 0.003714, 0.014889, 0.015516, -0.982557, -22.097589, -3.768420, -54.794147, 3.108936, -0.022777, -2.905559

149372601.616039, 0.002451, 0.000150, 0.000354, 0.014889, 0.015516, -0.982557, -22.062744, -3.964254, -54.778057, 3.109300, -0.022631, -2.906126

149372601.617052, 0.000313, 0.001983, -0.001784, 0.029778, 0.000000, -0.997673, -22.034868, -4.120921, -54.765182, 3.109944, -0.022814, -2.907365

149372601.618116, -0.001214, 0.001677, 0.000049, 0.029778, 0.000000, -0.997673, -22.012568, -4.246254, -54.754883, 3.110560, -0.022989, -2.908492

149372601.619111, 0.001840, 0.001677, 0.002492, 0.029778, 0.015516, -1.012789, -21.994726, -4.346521, -54.746643, 3.110892, -0.023137, -2.908850

149372601.620162, -0.001520, 0.001677, -0.000562, 0.029778, 0.015516, -1.012789, -22.000990, -4.243062, -54.693405, 3.111182, -0.023282, -2.909256

149372601.621188, 0.000313, -0.000766, 0.000354, 0.029778, 0.031033, -0.997673, -22.006001, -4.160294, -54.650814, 3.111173, -0.023406, -2.909046

149372601.622220, -0.003657, -0.000156, -0.000562, 0.029778, 0.031033, -0.997673, -22.010010, -4.094079, -54.616741, 3.111123, -0.023532, -2.908884

149372601.623237, -0.006711, 0.001371, -0.000562, 0.014889, 0.015516, -0.982557, -22.013216, -4.020700, -54.636131, 3.111351, -0.023381, -2.909321

149372601.624281, -0.000908, 0.001371, 0.000354, 0.014889, 0.015516, -0.982557, -22.015781, -3.961996, -54.651642, 3.111633, -0.023234, -2.909807

149372601.625304, 0.002452, -0.000156, -0.000562, 0.029778, 0.015516, -0.982557, -22.017834, -3.915033, -54.664051, 3.111938, -0.023378, -2.910451

149372601.626330, -0.000602, -0.001683, -0.000562, 0.029778, 0.015516, -0.982557, -22.040012, -3.877462, -54.673977, 3.112207, -0.023504, -2.911117

149372601.627357, 0.004284, -0.000766, 0.001576, 0.029778, 0.015516, -0.967441, -22.057755, -3.847406, -54.681919, 3.112515, -0.023646, -2.911811

149372601.628412, 0.002146, 0.002288, -0.001173, 0.029778, 0.015516, -0.967441, -22.071949, -3.823361, -54.688274, 3.112795, -0.023816, -2.912484

149372601.629445, -0.000298, -0.000461, -0.001784, 0.029778, 0.031033, -0.967441, -22.083305, -3.804125, -54.693356, 3.112726, -0.023950, -2.912453

149372601.630449, -0.001214, 0.001982, -0.003921, 0.029778, 0.031033, -0.967441, -22.092390, -3.788736, -54.697422, 3.112650, -0.024104, -2.912415

149372601.631493, 0.001840, 0.003509, -0.000562, 0.044666, 0.031033, -0.982557, -22.099657, -3.776425, -54.700676, 3.112614, -0.024565, -2.912584

149372601.632525, 0.000924, -0.001683, -0.004532, 0.044666, 0.031033, -0.982557, -22.105471, -3.766576, -54.703278, 3.112568, -0.024963, -2.912719

149372601.633538, -0.001825, -0.000767, -0.001477, 0.044666, 0.046549, -0.967441, -22.069050, -3.819922, -54.682037, 3.112175, -0.025383, -2.912153

149372601.634575, -0.002130, 0.002898, 0.000050, 0.044666, 0.046549, -0.967441, -22.039913, -3.862598, -54.665043, 3.111786, -0.025831, -2.911575

149372601.635602, 0.002451, 0.000149, -0.001477, 0.014889, 0.031033, -0.982557, -22.016603, -3.896739, -54.651447, 3.111774, -0.025619, -2.911335

149372601.636626, -0.003352, 0.004730, 0.000966, 0.014889, 0.031033, -0.982557, -22.018492, -3.862827, -54.617249, 3.111704, -0.025457, -2.911152

149372601.637677, 0.000008, 0.000148, 0.001577, 0.014889, 0.031033, -0.982557, -22.020002, -3.835698, -54.589890, 3.111670, -0.025254, -2.911004

149372601.638727, 0.002146, 0.001981, -0.000561, 0.014889, 0.031033, -0.982557, -22.021212, -3.813994, -54.568001, 3.111658, -0.025072, -2.910855

149372601.639710, 0.000313, 0.005035, 0.000966, 0.014889, 0.015516, -0.967441, -22.063251, -3.857856, -54.550491, 3.111942, -0.024930, -2.911403

