Recommendet Poll Interval: 4mS
Time, gyroX, gyroY, gyroZ, accelX, accelY, accelZ, magX, magY, magZ, phi, theta, psi
149330516.080967, -0.010548, -0.002632, -0.009415, -0.000000, 0.000000, -0.982557, -2.433719, -4.092375, -10.406286, 3.141593, 0.000000, -2.107307
149330516.084775, -0.008233, -0.001679, -0.005928, -0.000000, 0.000000, -0.982557, -4.360158, -7.468316, -18.731316, 3.141286, 0.000063, -2.106924
149330516.085749, -0.007760, 0.001346, -0.006700, 0.014889, -0.015483, -0.967441, -5.901309, -10.169069, -25.391338, 3.141532, -0.000265, -2.107589
149330516.086739, -0.010587, -0.001672, -0.008353, 0.014889, -0.015483, -0.967441, -7.134231, -12.329672, -30.719357, -3.141440, -0.000557, -2.108196
149330516.087765, -0.012158, -0.004029, -0.006981, 0.014889, -0.015483, -0.982557, -8.202713, -14.017337, -35.028419, -3.141256, -0.000814, -2.108887
149330516.088807, -0.012201, -0.000356, -0.008329, 0.014889, -0.015483, -0.982557, -9.057499, -15.367469, -38.475670, -3.141078, -0.001103, -2.109612
149330516.089878, -0.009552, 0.000249, -0.004267, -0.000000, -0.015483, -0.997673, -9.741327, -16.447575, -41.233471, -3.140878, -0.001086, -2.109838
149330516.090845, -0.006361, -0.002746, -0.005074, -0.000000, -0.015483, -0.997673, -10.226781, -17.230026, -43.439713, -3.140642, -0.001040, -2.110077
149330516.091901, -0.010712, -0.001492, -0.007060, 0.014889, 0.000000, -0.982557, -10.615144, -17.855988, -45.204704, -3.140775, -0.001307, -2.110501
149330516.092941, -0.007796, -0.000265, -0.007809, 0.014889, 0.000000, -0.982557, -10.925835, -18.356756, -46.616699, -3.140875, -0.001581, -2.110923
149330516.093992, -0.009628, -0.001792, -0.005365, 0.014889, -0.061933, -0.982557, -11.174387, -18.818596, -47.722969, -3.139745, -0.001898, -2.112988
149330516.094983, -0.014821, 0.000651, -0.006587, -0.000000, -0.015483, -0.982557, -11.373229, -19.188068, -48.607986, -3.139610, -0.001868, -2.113144
149330516.096011, -0.009127, -0.003249, -0.009438, -0.000000, -0.015483, -0.982557, -11.532303, -19.483646, -49.315998, -3.139427, -0.001799, -2.113252
149330516.097071, -0.010130, -0.001088, -0.008642, -0.000000, -0.030966, -0.967441, -11.659562, -19.720108, -49.882408, -3.138935, -0.001761, -2.113752
149330516.098097, -0.006927, 0.000729, -0.004573, -0.000000, -0.030966, -0.967441, -11.802442, -19.950094, -50.335537, -3.138418, -0.001742, -2.114289
149330516.099115, -0.008575, 0.004003, -0.005074, 0.014889, 0.000000, -0.997673, -11.916745, -20.134083, -50.698040, -3.138569, -0.002045, -2.114603
149330516.100129, -0.009591, 0.000928, -0.007360, 0.014889, 0.000000, -0.997673, -12.008188, -20.281273, -50.988041, -3.138727, -0.002311, -2.114891
149330516.101180, -0.006399, 0.002105, -0.005112, 0.014889, -0.030966, -0.982557, -12.060806, -20.378618, -51.220043, -3.138228, -0.002605, -2.115963
149330516.102230, -0.010450, -0.000032, -0.006798, 0.014889, -0.030966, -0.982557, -12.102901, -20.456493, -51.405643, -3.137780, -0.002871, -2.116993
149330516.103240, -0.009931, 0.002061, -0.001871, -0.000000, 0.000000, -0.967441, -12.136577, -20.518795, -51.554127, -3.137954, -0.002835, -2.116733
149330516.104252, -0.005536, -0.000972, -0.001233, -0.000000, 0.000000, -0.967441, -12.204590, -20.527819, -51.672913, -3.138083, -0.002769, -2.116530
149330516.105280, -0.007214, -0.000653, -0.004796, 0.014889, -0.015483, -0.967441, -12.259000, -20.535038, -51.767941, -3.137910, -0.003020, -2.117271
149330516.106342, -0.005268, -0.001237, -0.005592, 0.014889, -0.015483, -0.967441, -12.302528, -20.540813, -51.843964, -3.137724, -0.003259, -2.118017
149330516.107357, -0.005755, -0.000912, -0.005773, -0.000000, 0.000000, -0.997673, -12.357887, -20.667883, -51.858131, -3.137859, -0.003185, -2.117793
149330516.108406, -0.007129, -0.001790, -0.005950, -0.000000, 0.000000, -0.997673, -12.402175, -20.769539, -51.869469, -3.138007, -0.003104, -2.117558
149330516.109459, -0.009072, -0.001154, -0.006722, 0.014889, -0.015483, -0.982557, -12.437605, -20.850863, -51.878536, -3.137862, -0.003338, -2.118224
149330516.110453, -0.005293, -0.002924, -0.003591, 0.014889, -0.015483, -0.982557, -12.465949, -20.915922, -51.885792, -3.137677, -0.003550, -2.118901
149330516.111461, -0.008470, 0.001025, -0.005309, 0.014889, -0.015483, -0.997673, -12.468087, -20.906746, -51.914921, -3.137533, -0.003791, -2.119539
149330516.112553, -0.003508, 0.001900, -0.003104, 0.014889, -0.015483, -0.997673, -12.469798, -20.899405, -51.938221, -3.137346, -0.004038, -2.120189
149330516.113563, -0.004032, -0.000831, -0.006029, -0.000000, -0.015483, -0.982557, -12.471167, -20.893532, -51.956863, -3.137155, -0.003950, -2.120261
149330516.114548, -0.007535, 0.000084, -0.006799, -0.000000, -0.015483, -0.982557, -12.369580, -20.786793, -51.995102, -3.137002, -0.003873, -2.120300
149330516.115601, -0.007675, 0.001577, -0.006058, -0.000000, -0.030966, -0.982557, -12.288311, -20.701401, -52.025692, -3.136542, -0.003818, -2.120705
149330516.116671, -0.005122, 0.003039, -0.003837, -0.000000, -0.030966, -0.982557, -12.223295, -20.633087, -52.050163, -3.136066, -0.003780, -2.121109
149330516.117660, -0.010097, -0.001510, -0.004354, -0.000000, -0.015483, -0.982557, -12.253428, -20.639662, -52.139713, -3.135960, -0.003690, -2.121137
149330516.118697, -0.006296, -0.001777, -0.003067, -0.000000, -0.015483, -0.982557, -12.277535, -20.644920, -52.211353, -3.135821, -0.003599, -2.121192
149330516.119702, -0.007061, -0.003534, -0.004796, -0.000000, -0.015483, -0.952324, -12.296821, -20.649128, -52.268665, -3.135681, -0.003493, -2.121253
149330516.120789, -0.006613, -0.002264, -0.004396, -0.000000, -0.015483, -0.952324, -12.271176, -20.734127, -52.291191, -3.135545, -0.003400, -2.121257
149330516.121771, -0.002288, 0.000774, -0.005500, -0.000000, -0.015483, -0.952324, -12.250661, -20.802126, -52.309212, -3.135364, -0.003340, -2.121209
149330516.122815, -0.005828, -0.004325, -0.002095, -0.000000, 0.000000, -0.967441, -12.234248, -20.856525, -52.323627, -3.135548, -0.003230, -2.120790
149330516.123825, -0.008097, -0.002440, -0.003546, -0.000000, 0.000000, -0.967441, -12.221118, -20.900045, -52.335159, -3.135750, -0.003143, -2.120337
149330516.124879, -0.010020, -0.001492, -0.004368, 0.014889, 0.000000, -0.967441, -12.210614, -20.853228, -52.297737, -3.135972, -0.003372, -2.120460
149330516.125929, -0.005922, -0.001161, -0.002183, 0.014889, 0.000000, -0.967441, -12.202210, -20.815773, -52.267799, -3.136146, -0.003600, -2.120614
149330516.126947, -0.005797, 0.002750, -0.003034, 0.014889, 0.000000, -0.982557, -12.195488, -20.785810, -52.243851, -3.136314, -0.003858, -2.120756
149330516.127984, -0.005077, -0.001195, -0.002970, 0.014889, 0.000000, -0.982557, -12.251719, -20.782248, -52.201366, -3.136472, -0.004071, -2.120935
149330516.129017, -0.002279, -0.000572, -0.003805, 0.014889, 0.000000, -0.982557, -12.296703, -20.779398, -52.167377, -3.136599, -0.004286, -2.121134
149330516.130049, -0.001633, 0.000038, -0.003127, 0.014889, 0.000000, -0.982557, -12.332691, -20.777119, -52.140186, -3.136717, -0.004503, -2.121362
149330516.131060, -0.006682, -0.002055, -0.000071, 0.014889, -0.015483, -0.967441, -12.258800, -20.856928, -52.118435, -3.136564, -0.004704, -2.121912
149330516.132072, -0.004149, -0.000218, -0.001265, 0.014889, -0.015483, -0.967441, -12.199686, -20.920774, -52.101032, -3.136388, -0.004918, -2.122368
149330516.133093, -0.004959, -0.003503, -0.005425, -0.000000, -0.015483, -0.967441, -12.152395, -20.971851, -52.087112, -3.136222, -0.004784, -2.122143
149330516.134182, -0.006947, -0.003728, -0.004115, -0.000000, -0.015483, -0.967441, -12.114563, -21.012712, -52.075977, -3.136084, -0.004647, -2.121887
149330516.135181, -0.005904, -0.000360, -0.002832, -0.000000, -0.015483, -0.967441, -12.104834, -20.943361, -52.090393, -3.135932, -0.004550, -2.121675
149330516.136207, 0.000499, 0.000544, -0.003968, -0.000000, -0.015483, -0.967441, -12.097050, -20.887880, -52.101925, -3.135722, -0.004464, -2.121476
149330516.137240, -0.005192, 0.001131, -0.000297, -0.000000, -0.015483, -0.967441, -12.090823, -20.843496, -52.111149, -3.135572, -0.004386, -2.121332
149330516.138285, -0.003887, -0.000986, -0.000889, -0.000000, -0.015483, -0.967441, -12.167987, -20.767172, -52.071880, -3.135413, -0.004288, -2.121274
149330516.139306, -0.003506, -0.003357, -0.002066, -0.000000, -0.030966, -0.982557, -12.229718, -20.706112, -52.040466, -3.134941, -0.004174, -2.121656
149330516.140380, -0.004927, -0.002390, -0.004115, -0.000000, -0.030966, -0.982557, -12.279103, -20.657265, -52.015335, -3.134495, -0.004071, -2.122067
149330516.141352, -0.004525, -0.001442, -0.001637, 0.014889, -0.046450, -0.982557, -12.298075, -20.720228, -52.065201, -3.133743, -0.004307, -2.123478
149330516.142383, -0.005625, -0.001113, -0.002798, 0.014889, -0.046450, -0.982557, -12.313252, -20.770599, -52.105095, -3.133020, -0.004539, -2.124835
149330516.143413, -0.003115, 0.001602, -0.002440, 0.014889, -0.015483, -0.967441, -12.325395, -20.810896, -52.137009, -3.132906, -0.004774, -2.125360
149330516.144452, -0.000657, 0.001568, -0.003286, 0.014889, -0.015483, -0.967441, -12.294035, -20.741093, -52.092567, -3.132769, -0.005005, -2.125875
149330516.145485, -0.007521, 0.001236, -0.003217, -0.000000, -0.015483, -0.967441, -12.268948, -20.685249, -52.057014, -3.132703, -0.004918, -2.125814
149330516.146518, -0.003774, -0.001481, -0.000757, -0.000000, -0.015483, -0.967441, -12.248878, -20.640575, -52.028572, -3.132599, -0.004805, -2.125784
149330516.147532, -0.005190, 0.000344, -0.003731, -0.000000, 0.000000, -0.952324, -12.232821, -20.604836, -52.005821, -3.132832, -0.004714, -2.125362
149330516.148585, -0.004483, 0.001234, -0.003952, -0.000000, 0.000000, -0.952324, -12.281586, -20.657875, -52.057590, -3.133054, -0.004634, -2.124957
149330516.149843, -0.005399, 0.003066, -0.003341, 0.014889, -0.015483, -0.997673, -12.320597, -20.700308, -52.099007, -3.132984, -0.004880, -2.125482
149330516.150674, -0.002295, 0.000610, -0.005961, 0.014889, -0.015483, -0.997673, -12.351806, -20.734253, -52.132141, -3.132868, -0.005088, -2.125995
149330516.151654, -0.004041, 0.002092, -0.004640, 0.014889, -0.015483, -0.997673, -12.335700, -20.700186, -52.158646, -3.132773, -0.005307, -2.126507
149330516.152682, -0.001863, -0.000344, -0.003346, 0.014889, -0.030966, -0.982557, -12.322816, -20.672932, -52.179852, -3.132344, -0.005511, -2.127435
149330516.153951, -0.007804, 0.000859, -0.004173, 0.014889, -0.030966, -0.982557, -12.312509, -20.651129, -52.196815, -3.132000, -0.005726, -2.128330
149330516.154778, -0.006443, -0.000355, -0.003188, 0.014889, -0.030966, -0.982557, -12.304263, -20.654095, -52.210388, -3.131619, -0.005921, -2.129227
149330516.155786, -0.003318, 0.002045, 0.000168, 0.014889, -0.030966, -0.982557, -12.297667, -20.656467, -52.221245, -3.131225, -0.006135, -2.130127
149330516.157003, -0.000557, -0.000989, -0.002227, 0.014889, 0.000000, -0.982557, -12.292389, -20.658365, -52.229931, -3.131439, -0.006303, -2.130205
149330516.157995, -0.005329, -0.002164, -0.001582, 0.014889, 0.000000, -0.982557, -12.288167, -20.619068, -52.120258, -3.131695, -0.006459, -2.130306
149330516.158877, -0.001330, -0.003314, -0.002745, -0.000000, -0.015483, -0.982557, -12.284789, -20.587629, -52.032520, -3.131590, -0.006301, -2.130214
149330516.159912, -0.000704, 0.000643, 0.001200, -0.000000, -0.015483, -0.982557, -12.282087, -20.562479, -51.962330, -3.131482, -0.006182, -2.130170
149330516.161078, 0.004394, 0.001227, 0.001772, -0.000000, 0.000000, -0.997673, -12.279925, -20.542358, -51.906178, -3.131635, -0.006074, -2.129778
149330516.162024, -0.000483, -0.000294, 0.001436, -0.000000, 0.000000, -0.997673, -12.257660, -20.730343, -51.931229, -3.131840, -0.005952, -2.129291
149330516.162993, -0.005256, -0.001484, -0.001584, 0.014889, 0.000000, -0.967441, -12.239847, -20.880732, -51.951267, -3.132085, -0.006127, -2.129270
149330516.164020, -0.008734, -0.000555, -0.000355, 0.014889, 0.000000, -0.967441, -12.225597, -21.001041, -51.967300, -3.132363, -0.006306, -2.129200
149330516.165142, -0.004663, 0.000951, -0.000347, 0.014889, -0.015483, -0.997673, -12.214197, -20.913616, -52.050098, -3.132289, -0.006490, -2.129504
149330516.166122, -0.001276, -0.000265, -0.000639, 0.014889, -0.015483, -0.997673, -12.205077, -20.843676, -52.116337, -3.132179, -0.006657, -2.129826
149330516.167116, -0.000950, -0.002352, 0.001467, -0.000000, -0.030966, -0.982557, -12.197782, -20.787724, -52.169327, -3.131746, -0.006503, -2.130011
149330516.168265, -0.004817, -0.000808, 0.002035, -0.000000, -0.030966, -0.982557, -12.253553, -20.722553, -52.118423, -3.131366, -0.006366, -2.130273
149330516.169475, -0.002323, -0.000193, -0.001895, 0.014889, -0.015483, -0.967441, -12.298171, -20.670418, -52.077702, -3.131280, -0.006546, -2.130737
149330516.170464, -0.003172, -0.001086, -0.001855, 0.014889, -0.015483, -0.967441, -12.333865, -20.628710, -52.045124, -3.131200, -0.006713, -2.131238
149330516.171275, -0.002208, 0.002226, -0.002115, -0.000000, -0.015483, -0.967441, -12.300812, -20.738199, -52.042385, -3.131106, -0.006597, -2.131086
149330516.172336, 0.000530, 0.002478, 0.001816, -0.000000, -0.015483, -0.967441, -12.274369, -20.825792, -52.040195, -3.130991, -0.006490, -2.130913
149330516.173780, -0.001275, 0.000931, -0.001511, -0.000000, -0.015483, -0.982557, -12.253215, -20.895866, -52.038441, -3.130907, -0.006373, -2.130651
149330516.176195, 0.001741, 0.001510, 0.001511, 0.014889, -0.015483, -0.967441, -12.236291, -20.829475, -51.967068, -3.130760, -0.006590, -2.131047
149330516.177620, -0.007863, -0.003904, -0.003903, 0.014889, -0.015483, -0.982557, -12.222753, -20.776363, -51.909969, -3.130774, -0.006708, -2.131343
149330516.179262, -0.005605, 0.000364, -0.002326, 0.014889, -0.015483, -0.982557, -12.252995, -20.733873, -51.934261, -3.130767, -0.006884, -2.131691
149330516.180632, -0.001301, -0.000840, -0.000483, 0.014889, -0.015483, -0.982557, -12.277188, -20.699883, -51.953693, -3.130688, -0.007039, -2.132097
149330516.181582, -0.001871, 0.000075, -0.001370, 0.014889, -0.015483, -0.982557, -12.255470, -20.713505, -51.969242, -3.130610, -0.007203, -2.132467
149330516.182575, -0.004224, 0.001569, -0.002537, -0.000000, -0.015483, -0.997673, -12.238095, -20.724403, -51.981678, -3.130561, -0.007074, -2.132230
149330516.183651, -0.003537, 0.000937, -0.003978, -0.000000, -0.015483, -0.997673, -12.224195, -20.733122, -51.991627, -3.130510, -0.006943, -2.131967
149330516.184651, -0.004061, -0.001773, -0.003596, 0.014889, -0.015483, -0.967441, -12.213076, -20.740097, -51.929615, -3.130453, -0.007095, -2.132288
149330516.185662, -0.000088, 0.002151, -0.000829, 0.014889, -0.015483, -0.967441, -12.183643, -20.745678, -51.880005, -3.130358, -0.007283, -2.132607
149330516.186683, 0.001110, 0.002106, 0.001281, 0.014889, -0.030966, -0.967441, -12.160098, -20.750141, -51.840317, -3.129934, -0.007473, -2.133320
149330516.187731, -0.001007, 0.000267, -0.000839, 0.014889, -0.030966, -0.967441, -12.141261, -20.753712, -51.808567, -3.129541, -0.007641, -2.133980
149330516.188795, -0.000090, -0.002481, 0.001299, 0.029778, 0.000000, -0.922092, -12.105656, -20.674936, -51.876465, -3.129788, -0.008105, -2.134486
149330516.189777, 0.001706, 0.000561, -0.002316, 0.029778, 0.000000, -0.922092, -12.077171, -20.611916, -51.930782, -3.130014, -0.008591, -2.134956
149330516.190826, 0.001095, 0.000866, 0.000738, -0.000000, 0.000000, -0.982557, -12.054383, -20.561499, -51.974236, -3.130237, -0.008432, -2.134285
149330516.191849, -0.006702, 0.000250, 0.000723, -0.000000, 0.000000, -0.982557, -12.118299, -20.602798, -52.008999, -3.130534, -0.008269, -2.133655
149330516.192891, -0.002973, 0.001740, 0.002203, -0.000000, -0.015483, -0.967441, -12.169431, -20.635838, -52.036808, -3.130466, -0.008121, -2.133443
149330516.193915, 0.000079, -0.000988, -0.000236, -0.000000, -0.015483, -0.967441, -12.210337, -20.662270, -52.059055, -3.130369, -0.007948, -2.133228
149330516.194933, 0.000377, -0.001565, -0.001726, 0.014889, 0.000000, -0.982557, -12.243062, -20.663008, -52.030205, -3.130589, -0.008077, -2.133215
149330516.195982, -0.004415, 0.002953, -0.003184, 0.014889, 0.000000, -0.982557, -12.269242, -20.663597, -52.007126, -3.130855, -0.008249, -2.133205
149330516.197011, -0.005518, 0.000200, -0.000725, 0.014889, -0.030966, -0.967441, -12.290186, -20.664070, -51.988663, -3.130489, -0.008402, -2.134024
149330516.198086, 0.000877, 0.000495, 0.000187, 0.014889, -0.030966, -0.967441, -12.306941, -20.664448, -51.973892, -3.130064, -0.008555, -2.134847
149330516.199137, 0.003251, 0.003175, 0.001977, 0.014889, -0.015483, -0.967441, -12.340881, -20.644341, -52.008724, -3.129943, -0.008725, -2.135303
149330516.200104, -0.001004, 0.002211, -0.000457, 0.014889, -0.015483, -0.967441, -12.368033, -20.628256, -52.036591, -3.129867, -0.008880, -2.135753
149330516.201222, -0.005767, -0.000227, -0.001643, -0.000000, -0.015483, -0.982557, -12.389755, -20.615387, -52.058884, -3.129850, -0.008701, -2.135622
149330516.202167, -0.002655, 0.000674, 0.000784, -0.000000, -0.015483, -0.982557, -12.386597, -20.666317, -52.053394, -3.129795, -0.008532, -2.135494
149330516.203167, 0.000092, 0.002454, -0.001027, 0.014889, -0.015483, -0.997673, -12.384069, -20.707062, -52.049000, -3.129721, -0.008685, -2.135880
149330516.204262, -0.004395, -0.000288, -0.002799, 0.014889, -0.015483, -0.997673, -12.382048, -20.739656, -52.045486, -3.129697, -0.008808, -2.136221
149330516.205789, -0.005200, -0.001179, -0.002740, 0.014889, -0.015483, -0.982557, -12.380430, -20.745325, -52.065998, -3.129699, -0.008918, -2.136555
149330516.206673, -0.000605, -0.002052, -0.003281, 0.014889, -0.015483, -0.982557, -12.379136, -20.749859, -52.082409, -3.129628, -0.009026, -2.136892
149330516.207851, 0.000005, -0.003503, -0.000521, -0.000000, 0.000000, -0.982557, -12.378101, -20.753487, -52.095539, -3.129870, -0.008808, -2.136319
149330516.208719, -0.002985, -0.001038, -0.001407, -0.000000, 0.000000, -0.982557, -12.377274, -20.654348, -52.082718, -3.130132, -0.008626, -2.135793
149330516.209648, -0.003819, -0.000418, 0.000417, 0.014889, -0.015483, -0.967441, -12.376611, -20.575037, -52.072460, -3.130078, -0.008759, -2.136271
149330516.210505, 0.000148, -0.001306, -0.002582, 0.014889, -0.015483, -0.967441, -12.376081, -20.511589, -52.064255, -3.129988, -0.008882, -2.136744
149330516.211440, 0.003434, -0.001876, 0.001061, 0.014889, -0.015483, -0.967441, -12.375657, -20.460831, -52.057690, -3.129870, -0.008995, -2.137263
149330516.212641, 0.002166, 0.002050, -0.000756, 0.014889, -0.015483, -0.967441, -12.354781, -20.501856, -51.982468, -3.129761, -0.009148, -2.137717
149330516.213711, 0.001821, -0.002478, -0.001039, 0.014889, -0.015483, -0.967441, -12.338080, -20.534676, -51.922287, -3.129660, -0.009248, -2.138131
149330516.214565, -0.003300, -0.002426, 0.001375, -0.000000, -0.015483, -0.997673, -12.324720, -20.560932, -51.874146, -3.129616, -0.009043, -2.137953
149330516.215559, -0.001137, -0.002076, 0.002243, -0.000000, -0.015483, -0.997673, -12.334569, -20.622753, -51.882278, -3.129558, -0.008841, -2.137768
149330516.216713, 0.000083, 0.000958, 0.000402, -0.000000, 0.000000, -0.982557, -12.342447, -20.672211, -51.888786, -3.129800, -0.008678, -2.137197
149330516.217737, -0.002311, -0.000557, -0.000205, -0.000000, 0.000000, -0.982557, -12.348750, -20.711777, -51.893990, -3.130061, -0.008503, -2.136619
149330516.218620, 0.001325, -0.000845, 0.000996, -0.000000, -0.030966, -0.982557, -12.333256, -20.661797, -51.944801, -3.129650, -0.008327, -2.136820
149330516.219696, -0.001094, 0.003359, 0.001573, -0.000000, -0.030966, -0.982557, -12.320861, -20.621813, -51.985451, -3.129269, -0.008198, -2.137036
149330516.220685, -0.001669, -0.002991, -0.000254, -0.000000, -0.015483, -0.967441, -12.310945, -20.589825, -52.017971, -3.129213, -0.008005, -2.136855
149330516.221751, -0.000438, 0.001557, -0.000847, -0.000000, -0.015483, -0.967441, -12.303012, -20.625460, -51.997337, -3.129146, -0.007861, -2.136650
149330516.222776, -0.004615, 0.000329, -0.001128, -0.000000, -0.015483, -0.967441, -12.296665, -20.653967, -51.980831, -3.129122, -0.007707, -2.136428
149330516.223813, -0.004817, 0.000322, 0.000092, -0.000000, -0.015483, -0.967441, -12.291588, -20.676773, -51.967628, -3.129101, -0.007556, -2.136209
149330516.224810, -0.004716, -0.000283, -0.002003, 0.014889, -0.015483, -0.982557, -12.287526, -20.695019, -51.957066, -3.129083, -0.007705, -2.136521
149330516.225933, -0.000131, 0.000620, -0.000765, 0.014889, -0.015483, -0.982557, -12.284277, -20.730022, -52.041912, -3.129021, -0.007862, -2.136821
149330516.226977, 0.001666, 0.002102, 0.000148, 0.029778, 0.000000, -0.982557, -12.281677, -20.758026, -52.109787, -3.129260, -0.008329, -2.137275
149330516.228603, -0.003154, -0.003324, -0.004340, 0.029778, -0.015483, -0.967441, -12.259061, -20.760021, -52.094116, -3.129247, -0.008727, -2.138035
149330516.229899, -0.002788, -0.004450, -0.001558, 0.029778, -0.015483, -0.967441, -12.240968, -20.761616, -52.081577, -3.129218, -0.009113, -2.138815
149330516.230904, -0.000935, -0.005254, -0.000329, -0.000000, -0.015483, -0.982557, -12.226494, -20.762892, -52.071548, -3.129161, -0.008878, -2.138452
149330516.232033, -0.000617, 0.000239, -0.001518, -0.000000, -0.015483, -0.982557, -12.173841, -20.702688, -52.133495, -3.129103, -0.008703, -2.138072
149330516.233257, -0.001202, 0.001430, -0.000589, -0.000000, -0.015483, -0.982557, -12.131720, -20.654526, -52.183056, -3.129054, -0.008546, -2.137702
149330516.234154, 0.003907, 0.001699, 0.000619, -0.000000, -0.015483, -0.982557, -12.098022, -20.615995, -52.222702, -3.128957, -0.008389, -2.137343
149330516.235150, 0.003601, -0.000439, 0.001536, -0.000000, 0.046549, -1.027906, -12.071065, -20.585171, -52.254421, -3.130085, -0.008263, -2.135715
149330516.236213, 0.001133, -0.001626, 0.002400, 0.014889, 0.015516, -1.027906, -12.152181, -20.642143, -52.256470, -3.130604, -0.008377, -2.135283
149330516.237231, -0.002180, 0.000501, 0.000556, 0.014889, 0.015516, -1.027906, -12.217072, -20.687721, -52.258110, -3.131146, -0.008509, -2.134866
149330516.238560, -0.000958, -0.003775, -0.000361, 0.014889, -0.015483, -0.982557, -12.268987, -20.724184, -52.259422, -3.131053, -0.008594, -2.135198
149330516.239393, -0.002433, -0.001602, 0.001740, 0.014889, -0.015483, -0.982557, -12.310517, -20.753355, -52.260471, -3.130970, -0.008712, -2.135559
149330516.240340, -0.003278, -0.001569, 0.000208, 0.014889, -0.015483, -0.967441, -12.343742, -20.776691, -52.261311, -3.130894, -0.008832, -2.135927
149330516.241755, -0.001415, 0.003846, -0.003085, 0.014889, 0.000000, -0.982557, -12.370322, -20.713728, -52.238659, -3.131128, -0.009012, -2.135903
149330516.243054, 0.001903, 0.000476, -0.001525, 0.014889, 0.000000, -0.982557, -12.350513, -20.663357, -52.220539, -3.131313, -0.009141, -2.135910
149330516.244024, -0.000529, -0.001328, 0.000301, -0.000000, -0.015483, -0.982557, -12.334666, -20.623060, -52.206043, -3.131209, -0.008945, -2.135755
149330516.245072, -0.000518, 0.002587, -0.001499, -0.000000, -0.015483, -0.982557, -12.321989, -20.590824, -52.194447, -3.131108, -0.008793, -2.135590
149330516.245987, 0.000689, 0.001038, -0.001169, 0.014889, -0.015483, -0.982557, -12.332383, -20.687483, -52.185169, -3.130998, -0.008931, -2.135963
149330516.247232, -0.000222, 0.000418, 0.000351, 0.014889, -0.015483, -0.982557, -12.340699, -20.764811, -52.177746, -3.130898, -0.009061, -2.136313
149330516.248098, 0.001875, 0.000409, 0.000642, 0.014889, -0.015483, -0.982557, -12.347352, -20.826674, -52.171806, -3.130782, -0.009187, -2.136633
149330516.249005, -0.000257, -0.001094, 0.000031, 0.014889, -0.015483, -0.982557, -12.393746, -20.774122, -52.143730, -3.130687, -0.009297, -2.136997
149330516.249896, -0.000850, -0.000174, -0.000867, 0.014889, -0.015483, -0.982557, -12.430861, -20.732080, -52.121269, -3.130598, -0.009414, -2.137392
149330516.250794, -0.000234, -0.001367, -0.001147, 0.014889, -0.015483, -0.967441, -12.460554, -20.698448, -52.103302, -3.130502, -0.009522, -2.137827
149330516.251632, -0.001724, 0.001951, -0.000525, 0.014889, -0.015483, -0.967441, -12.484308, -20.671541, -52.088928, -3.130419, -0.009657, -2.138288
149330516.252665, -0.000791, 0.002209, -0.001112, -0.000000, -0.015483, -0.982557, -12.421166, -20.629608, -52.030781, -3.130336, -0.009486, -2.138129
149330516.253678, -0.000774, 0.000967, -0.003780, -0.000000, -0.015483, -0.982557, -12.370652, -20.596062, -51.984264, -3.130255, -0.009306, -2.137926
149330516.254706, 0.001933, 0.002441, -0.000710, 0.014889, -0.015483, -0.982557, -12.330241, -20.569225, -51.947052, -3.130148, -0.009448, -2.138305
149330516.255739, 0.000099, 0.000895, 0.000800, 0.014889, -0.015483, -0.982557, -12.318449, -20.649796, -51.987251, -3.130062, -0.009572, -2.138646
149330516.256788, -0.003491, 0.000876, -0.003104, 0.014889, -0.015483, -0.982557, -12.309015, -20.714252, -52.019413, -3.130014, -0.009693, -2.138904
149330516.257794, -0.002222, 0.002353, -0.002740, 0.014889, -0.015483, -0.982557, -12.301468, -20.765818, -52.045139, -3.129954, -0.009826, -2.139134
149330516.258819, 0.002665, 0.000825, 0.000009, -0.015630, -0.046450, -0.952324, -12.295430, -20.705029, -52.065723, -3.129187, -0.009308, -2.139016
149330516.259901, -0.000680, 0.001406, -0.001785, -0.015630, -0.046450, -0.952324, -12.290600, -20.656399, -52.082188, -3.128469, -0.008807, -2.138901
149330516.260871, 0.000847, 0.003239, -0.003312, 0.014889, 0.000000, -0.997673, -12.286736, -20.617495, -52.095360, -3.128723, -0.008961, -2.138804
149330516.261917, -0.004254, -0.001614, -0.003841, 0.014889, 0.000000, -0.997673, -12.283645, -20.586370, -52.105900, -3.129024, -0.009064, -2.138712
149330516.262944, -0.005659, -0.000085, -0.001966, 0.014889, 0.000000, -0.952324, -12.342780, -20.581879, -52.137653, -3.129332, -0.009195, -2.138710
149330516.263999, -0.007334, -0.001279, 0.001963, 0.014889, 0.000000, -0.952324, -12.390089, -20.578285, -52.163055, -3.129653, -0.009310, -2.138782
149330516.264999, -0.001200, 0.000542, -0.001368, 0.014889, 0.000000, -0.952324, -12.427936, -20.575411, -52.183380, -3.129904, -0.009441, -2.138846
149330516.267660, 0.000620, -0.001562, -0.002535, 0.014889, -0.030966, -0.982557, -12.478749, -20.634336, -52.129665, -3.129495, -0.009524, -2.139624
149330516.268493, 0.007185, -0.001230, 0.000210, 0.014889, -0.030966, -0.982557, -12.519401, -20.681477, -52.086693, -3.129050, -0.009634, -2.140459
149330516.269302, 0.003146, -0.000607, 0.001999, 0.014889, -0.030966, -0.982557, -12.531385, -20.678373, -52.122288, -3.128648, -0.009747, -2.141302
149330516.270558, -0.002003, -0.000594, -0.000734, 0.029778, -0.015483, -0.997673, -12.540973, -20.675890, -52.150764, -3.128631, -0.010143, -2.142229
149330516.271443, -0.000765, 0.001811, 0.000178, 0.029778, -0.015483, -0.997673, -12.548643, -20.673904, -52.173546, -3.128595, -0.010553, -2.143154
149330516.272299, -0.002244, 0.001773, 0.000773, 0.014889, -0.015483, -0.967441, -12.452098, -20.672316, -52.191772, -3.128555, -0.010665, -2.143498
149330516.273249, 0.001691, -0.000358, -0.001038, 0.014889, -0.015483, -0.967441, -12.374862, -20.671043, -52.206352, -3.128480, -0.010757, -2.143766
149330516.274310, -0.001036, 0.000248, -0.000418, -0.000000, -0.015483, -0.982557, -12.313072, -20.670027, -52.218018, -3.128440, -0.010543, -2.143409
149330516.275358, 0.003172, -0.001252, -0.001904, -0.000000, -0.015483, -0.982557, -12.263640, -20.669212, -52.227348, -3.128358, -0.010320, -2.143008
149330516.276349, -0.001081, -0.000628, -0.000369, -0.000000, 0.000000, -0.982557, -12.285705, -20.648153, -52.211491, -3.128636, -0.010112, -2.142294
149330516.277399, -0.004048, -0.000914, -0.002753, -0.000000, 0.000000, -0.982557, -12.303356, -20.631306, -52.198803, -3.128941, -0.009905, -2.141589
149330516.278432, -0.002468, 0.000002, -0.002994, -0.000000, -0.030966, -0.967441, -12.317477, -20.617828, -52.188652, -3.128579, -0.009708, -2.141678
149330516.279454, 0.000873, -0.000895, 0.000059, -0.000000, -0.030966, -0.967441, -12.328774, -20.627455, -52.180531, -3.128190, -0.009506, -2.141799
149330516.280489, 0.000257, -0.000577, 0.001553, 0.014889, 0.000000, -0.982557, -12.337811, -20.635155, -52.174034, -3.128455, -0.009614, -2.141727
149330516.281526, 0.002942, -0.000266, 0.000324, 0.014889, 0.000000, -0.982557, -12.345041, -20.641315, -52.168839, -3.128687, -0.009722, -2.141646
149330516.282563, -0.000708, 0.001833, -0.000580, 0.014889, -0.015483, -0.982557, -12.350825, -20.666653, -52.257977, -3.128638, -0.009850, -2.141927
149330516.283599, 0.001101, 0.000000, 0.000927, 0.014889, -0.015483, -0.982557, -12.355453, -20.686922, -52.329288, -3.128572, -0.009956, -2.142212
149330516.284578, 0.003470, 0.002691, -0.001783, -0.000000, -0.015483, -0.982557, -12.359155, -20.703136, -52.386337, -3.128485, -0.009783, -2.141894
149330516.286799, 0.005191, -0.001551, 0.002440, 0.014889, -0.030966, -0.967441, -12.321043, -20.634476, -52.338680, -3.127996, -0.009867, -2.142645
149330516.287742, -0.002991, -0.000024, 0.001492, 0.014889, -0.030966, -0.967441, -12.290554, -20.579548, -52.300556, -3.127657, -0.009983, -2.143347
149330516.288703, -0.002330, -0.000920, -0.002426, 0.014889, -0.030966, -0.982557, -12.266163, -20.535604, -52.270054, -3.127330, -0.010083, -2.143980
149330516.290029, -0.004075, 0.001491, 0.000615, 0.014889, -0.030966, -0.982557, -12.308259, -20.622900, -52.222328, -3.127040, -0.010209, -2.144617
149330516.291544, 0.005279, 0.002058, 0.000303, 0.014889, -0.015483, -0.967441, -12.341935, -20.692736, -52.184147, -3.126933, -0.010343, -2.144844
149330516.292384, 0.000683, 0.000520, 0.001492, 0.014889, -0.015483, -0.967441, -12.368876, -20.748604, -52.153603, -3.126901, -0.010448, -2.145066
149330516.293188, -0.001424, 0.001705, -0.000931, 0.014889, -0.015483, -0.967441, -12.349357, -20.711666, -52.199139, -3.126886, -0.010561, -2.145268
149330516.294009, -0.004384, 0.003164, 0.001182, 0.014889, -0.015483, -0.967441, -12.333741, -20.682116, -52.235569, -3.126896, -0.010682, -2.145486
149330516.294902, 0.000791, -0.001687, 0.001755, 0.014889, -0.015483, -0.967441, -12.321249, -20.658476, -52.264713, -3.126863, -0.010761, -2.145709
149330516.295950, 0.000177, 0.000143, 0.002615, 0.014889, -0.015483, -0.997673, -12.372864, -20.659973, -52.194733, -3.126846, -0.010846, -2.145943
149330516.296962, -0.000425, -0.004345, 0.000467, 0.014889, -0.015483, -0.997673, -12.414156, -20.661171, -52.138748, -3.126835, -0.010884, -2.146178
149330516.297985, -0.000715, 0.000530, 0.000158, 0.014889, -0.015483, -0.967441, -12.447189, -20.662128, -52.093960, -3.126818, -0.010979, -2.146456
149330516.299039, -0.004886, 0.000818, 0.000155, 0.014889, -0.015483, -0.967441, -12.473617, -20.662895, -52.058128, -3.126845, -0.011076, -2.146746
149330516.300051, -0.000896, 0.001100, 0.002543, -0.000000, -0.030966, -0.997673, -12.453686, -20.785957, -52.099438, -3.126528, -0.010865, -2.146782
149330516.301083, 0.000020, 0.000778, 0.003985, -0.000000, -0.030966, -0.997673, -12.437741, -20.884407, -52.132484, -3.126208, -0.010655, -2.146774
149330516.302134, 0.001514, -0.001033, 0.002107, -0.000000, 0.000000, -0.982557, -12.424985, -20.963165, -52.158920, -3.126504, -0.010437, -2.145975
149330516.303164, 0.000286, 0.001381, 0.001465, -0.000000, 0.000000, -0.982557, -12.414781, -20.903725, -52.180069, -3.126806, -0.010248, -2.145203
149330516.304168, 0.001775, -0.002834, 0.000238, 0.014889, -0.015483, -0.982557, -12.406617, -20.856171, -52.196991, -3.126770, -0.010318, -2.145370
149330516.305199, 0.002934, -0.000980, 0.001429, 0.014889, -0.015483, -0.982557, -12.400086, -20.818129, -52.210526, -3.126722, -0.010404, -2.145560
149330516.306232, -0.001314, 0.000236, 0.001698, 0.014889, -0.015483, -0.967441, -12.312716, -20.787695, -52.198032, -3.126713, -0.010506, -2.145716
149330516.307267, 0.000209, 0.000829, -0.001029, 0.014889, -0.015483, -0.967441, -12.242819, -20.763348, -52.188038, -3.126689, -0.010612, -2.145803
149330516.308316, -0.000095, -0.000384, -0.000409, 0.014889, -0.015483, -0.982557, -12.186902, -20.743870, -52.180042, -3.126673, -0.010699, -2.145850
149330516.309340, 0.001103, -0.002170, 0.000795, 0.014889, -0.015483, -0.982557, -12.244850, -20.789513, -52.173645, -3.126645, -0.010765, -2.145927
149330516.310382, 0.000183, -0.000031, 0.000778, 0.014889, -0.015483, -0.967441, -12.291208, -20.826027, -52.168526, -3.126622, -0.010858, -2.146033
149330516.311402, -0.001615, 0.001763, 0.003154, 0.014889, -0.015483, -0.967441, -12.328295, -20.855238, -52.164433, -3.126618, -0.010965, -2.146174
149330516.312436, -0.000983, -0.000367, -0.002294, 0.014889, -0.046450, -0.982557, -12.357965, -20.878607, -52.161156, -3.125985, -0.011060, -2.147063
149330516.313480, 0.005616, -0.000060, -0.000153, 0.014889, -0.046450, -0.982557, -12.340628, -20.856485, -52.111885, -3.125297, -0.011155, -2.147953
149330516.314477, 0.004302, -0.002750, 0.003438, 0.014889, 0.000000, -0.982557, -12.326758, -20.838787, -52.072472, -3.125579, -0.011209, -2.147678
149330516.315522, 0.001520, 0.001793, -0.000222, 0.014889, 0.000000, -0.982557, -12.315662, -20.824629, -52.040939, -3.125883, -0.011309, -2.147371
149330516.316539, 0.001787, 0.004745, 0.000978, 0.014889, -0.015483, -0.982557, -12.286249, -20.731670, -52.062363, -3.125865, -0.011433, -2.147475
149330516.317584, 0.001750, 0.002851, 0.001556, 0.014889, -0.015483, -0.982557, -12.262719, -20.657303, -52.079502, -3.125846, -0.011536, -2.147600
149330516.318585, -0.000978, -0.001993, 0.001224, -0.000000, -0.046450, -0.967441, -12.243895, -20.597809, -52.093212, -3.125209, -0.011292, -2.147987
149330516.319634, 0.000836, -0.003745, 0.001497, -0.000000, -0.046450, -0.967441, -12.249372, -20.611439, -52.057533, -3.124566, -0.011033, -2.148365
149330516.320643, 0.000520, -0.001872, 0.000270, -0.000000, -0.046450, -0.967441, -12.253753, -20.622343, -52.028988, -3.123940, -0.010799, -2.148720
149330516.321681, 0.004396, 0.001755, -0.001231, -0.000000, -0.015483, -0.967441, -12.257258, -20.631065, -52.006153, -3.123931, -0.010602, -2.148237
149330516.322752, 0.003107, -0.002169, -0.001205, -0.000000, -0.015483, -0.967441, -12.260062, -20.638044, -51.987885, -3.123935, -0.010368, -2.147762
149330516.323775, -0.001443, 0.001465, -0.000283, 0.029778, 0.015516, -0.982557, -12.262305, -20.643627, -51.973270, -3.124617, -0.010782, -2.147669
149330516.324770, -0.003207, 0.001135, -0.001473, 0.029778, 0.015516, -0.982557, -12.264100, -20.648094, -51.961578, -3.125303, -0.011185, -2.147566
149330516.325819, -0.001345, -0.002178, 0.000352, 0.014889, -0.015483, -0.967441, -12.265536, -20.651667, -51.952225, -3.125322, -0.011247, -2.147693
149330516.326889, -0.002214, -0.001235, -0.000851, 0.014889, -0.015483, -0.967441, -12.246148, -20.593300, -52.014713, -3.125351, -0.011317, -2.147820
149330516.327895, 0.002019, -0.002405, 0.000064, 0.014889, -0.015483, -0.967441, -12.230638, -20.546606, -52.064705, -3.125336, -0.011374, -2.147965
149330516.328906, 0.001976, 0.001234, 0.000960, 0.014889, -0.015483, -0.967441, -12.218229, -20.509251, -52.104698, -3.125322, -0.011466, -2.148127
149330516.329957, 0.002832, -0.002081, -0.000257, -0.000000, -0.015483, -0.967441, -12.208302, -20.581408, -52.090046, -3.125301, -0.011216, -2.147653
149330516.330955, 0.002473, 0.000056, -0.003241, -0.000000, -0.015483, -0.967441, -12.200361, -20.639133, -52.078323, -3.125286, -0.010993, -2.147127
149330516.331997, 0.000029, 0.001251, -0.003173, -0.000000, -0.015483, -0.967441, -12.194009, -20.685314, -52.068943, -3.125294, -0.010786, -2.146586
149330516.333049, -0.002364, -0.002364, -0.001611, -0.000000, -0.015483, -0.967441, -12.209463, -20.681442, -52.038116, -3.125328, -0.010547, -2.146084
149330516.334039, -0.002613, -0.000221, -0.000680, 0.014889, -0.015483, -0.967441, -12.221827, -20.678345, -52.013454, -3.125359, -0.010641, -2.146188
149330516.335094, 0.001030, 0.001279, -0.000068, 0.014889, -0.015483, -0.967441, -12.231717, -20.675867, -51.993725, -3.125353, -0.010749, -2.146305
149330516.336145, -0.004673, 0.001252, -0.000665, -0.000000, 0.000000, -0.982557, -12.239630, -20.673885, -51.977943, -3.125730, -0.010553, -2.145477
149330516.337142, 0.002004, -0.002064, -0.000352, -0.000000, 0.000000, -0.982557, -12.225423, -20.611074, -52.011967, -3.126032, -0.010328, -2.144686
149330516.338180, 0.002261, 0.002166, 0.001450, -0.000000, -0.015483, -0.982557, -12.214058, -20.560825, -52.039185, -3.126007, -0.010143, -2.144305
149330516.339212, -0.001076, -0.000870, 0.002017, -0.000000, -0.015483, -0.982557, -12.204966, -20.520626, -52.060959, -3.126016, -0.009931, -2.143950
149330516.340239, -0.000156, 0.002737, -0.000417, -0.000000, -0.015483, -0.967441, -12.238765, -20.549692, -52.008408, -3.126011, -0.009760, -2.143595
149330516.341274, -0.004040, -0.000311, -0.002800, -0.000000, -0.015483, -0.967441, -12.265804, -20.572945, -51.966366, -3.126045, -0.009563, -2.143231
149330516.342295, -0.001862, -0.001202, -0.001844, 0.014889, -0.015483, -0.967441, -12.287436, -20.591547, -51.932732, -3.126055, -0.009667, -2.143466
149330516.343342, 0.000270, 0.002113, -0.000610, 0.014889, -0.015483, -0.967441, -12.304741, -20.586021, -51.975796, -3.126044, -0.009803, -2.143724
149330516.344337, -0.000035, 0.003264, -0.001195, 0.014889, -0.015483, -0.997673, -12.318585, -20.581600, -52.010246, -3.126046, -0.009938, -2.143955
149330516.345411, 0.002358, 0.000804, -0.002067, 0.014889, -0.015483, -0.997673, -12.329660, -20.578064, -52.037807, -3.126023, -0.010046, -2.144182
149330516.346407, 0.002608, -0.001904, -0.002322, 0.014889, -0.015483, -0.952324, -12.317985, -20.636459, -52.106503, -3.125984, -0.010139, -2.144413
149330516.347459, -0.001035, -0.000967, 0.001913, 0.014889, -0.015483, -0.952324, -12.308643, -20.683174, -52.161461, -3.125982, -0.010239, -2.144654
149330516.348481, -0.002509, -0.003040, -0.002015, 0.014889, -0.015483, -0.952324, -12.301170, -20.720547, -52.205425, -3.125995, -0.010317, -2.144828
149330516.349522, 0.002029, 0.002107, -0.001972, -0.000000, 0.000000, -0.967441, -12.295192, -20.750444, -52.240597, -3.126291, -0.010138, -2.144024
149330516.350585, 0.002585, 0.002362, -0.001333, -0.000000, 0.000000, -0.967441, -12.249336, -20.733547, -52.222088, -3.126574, -0.009966, -2.143217
149330516.351578, -0.005842, 0.002013, 0.000190, 0.014889, -0.015483, -0.997673, -12.212652, -20.720030, -52.207279, -3.126621, -0.010085, -2.143337
149330516.352604, -0.004523, 0.001373, 0.001083, 0.014889, -0.015483, -0.997673, -12.183305, -20.709215, -52.195435, -3.126656, -0.010194, -2.143447
149330516.353633, -0.003232, 0.002540, 0.000762, 0.014889, -0.030966, -0.967441, -12.180364, -20.761787, -52.232605, -3.126348, -0.010328, -2.143958
149330516.355322, 0.005208, 0.001888, 0.004035, -0.000000, -0.015483, -0.982557, -12.178010, -20.803846, -52.262341, -3.126254, -0.010152, -2.143511
149330516.356175, 0.002408, 0.001849, 0.002156, -0.000000, -0.015483, -0.982557, -12.176127, -20.837494, -52.286129, -3.126228, -0.009964, -2.143007
149330516.356988, 0.000563, 0.000315, 0.001512, -0.000000, -0.015483, -0.982557, -12.154085, -20.762371, -52.235188, -3.126218, -0.009767, -2.142524
149330516.357832, -0.002738, -0.002084, 0.000882, 0.014889, -0.015483, -0.982557, -12.136451, -20.702272, -52.194435, -3.126233, -0.009857, -2.142632
149330516.359321, 0.001805, -0.001442, 0.000565, 0.014889, -0.015483, -0.967441, -12.122344, -20.654194, -52.161835, -3.126194, -0.009946, -2.142764
149330516.360216, 0.002365, -0.001711, -0.000942, 0.014889, -0.015483, -0.967441, -12.090522, -20.656548, -52.205727, -3.126161, -0.010040, -2.142854
149330516.361031, 0.004408, 0.002212, 0.000872, 0.014889, -0.015483, -0.967441, -12.065064, -20.658430, -52.240841, -3.126115, -0.010164, -2.142940
149330516.361898, 0.001026, -0.000824, 0.002648, 0.014889, -0.030966, -0.967441, -12.044698, -20.659935, -52.268932, -3.125777, -0.010265, -2.143427
149330516.362951, -0.002284, -0.000508, -0.000996, 0.014889, -0.030966, -0.967441, -12.028405, -20.661140, -52.291405, -3.125478, -0.010365, -2.143862
149330516.363954, -0.002834, -0.001394, -0.002171, 0.014889, -0.015483, -0.967441, -12.035907, -20.764145, -52.262733, -3.125508, -0.010452, -2.143830
149330516.364963, -0.000383, -0.001066, -0.000631, 0.014889, -0.015483, -0.967441, -12.041908, -20.846548, -52.239796, -3.125514, -0.010539, -2.143781
149330516.366006, 0.000522, -0.001343, -0.002710, -0.000000, -0.015483, -0.982557, -12.046710, -20.912470, -52.221447, -3.125519, -0.010315, -2.143097
149330516.367038, -0.002479, 0.000181, -0.001457, -0.000000, -0.015483, -0.982557, -12.132696, -20.842758, -52.206768, -3.125553, -0.010111, -2.142534
149330516.368065, -0.001529, -0.000720, 0.001264, 0.014889, -0.015483, -0.997673, -12.201486, -20.786989, -52.195026, -3.125579, -0.010200, -2.142640
149330516.369071, 0.001792, -0.001901, 0.002135, 0.014889, -0.015483, -0.997673, -12.256516, -20.742374, -52.185631, -3.125571, -0.010275, -2.142811
149330516.370163, 0.003014, 0.000237, 0.002746, 0.014889, 0.062065, -0.997673, -12.238933, -20.706682, -52.154789, -3.127098, -0.010426, -2.141361
149330516.371136, 0.001156, 0.000830, 0.003286, 0.014889, 0.062065, -0.997673, -12.224866, -20.678129, -52.130116, -3.128615, -0.010578, -2.139945
149330516.372174, -0.000066, -0.002835, -0.001906, 0.014889, -0.015483, -1.012789, -12.213613, -20.655287, -52.110378, -3.128570, -0.010632, -2.140123
149330516.373211, 0.000833, -0.001878, -0.002464, 0.014889, -0.015483, -1.012789, -12.204610, -20.637012, -52.094589, -3.128517, -0.010694, -2.140294
149330516.374244, 0.002908, -0.000643, 0.003269, 0.029778, -0.015483, -0.997673, -12.259016, -20.683617, -52.058632, -3.128445, -0.011071, -2.141087
149330516.375748, 0.003146, -0.002423, -0.000089, 0.029778, -0.015483, -0.997673, -12.302541, -20.720901, -52.029869, -3.128359, -0.011412, -2.141840
149330516.376600, -0.000209, 0.001515, -0.002778, -0.000000, -0.015483, -0.967441, -12.337361, -20.750729, -52.006859, -3.128307, -0.011196, -2.141489
149330516.377449, -0.006185, -0.002105, -0.002421, -0.000000, -0.015483, -0.967441, -12.283072, -20.774590, -52.035099, -3.128306, -0.010954, -2.141097
149330516.378543, -0.003065, 0.000032, -0.000277, 0.014889, 0.000000, -0.937208, -12.239641, -20.793678, -52.057690, -3.128604, -0.011054, -2.140908
149330516.379570, -0.000309, 0.000331, 0.001224, 0.014889, 0.000000, -0.937208, -12.204896, -20.808950, -52.075764, -3.128866, -0.011155, -2.140709
149330516.380535, 0.004182, 0.000025, 0.001796, 0.014889, 0.000000, -0.937208, -12.156564, -20.759943, -52.043571, -3.129081, -0.011251, -2.140505
149330516.381584, -0.003148, -0.002419, 0.001491, 0.014889, 0.000000, -0.997673, -12.117898, -20.720737, -52.017818, -3.129362, -0.011301, -2.140258
149330516.382823, -0.002537, -0.000586, -0.000342, -0.000000, 0.000000, -0.952324, -12.086965, -20.689373, -51.997215, -3.129642, -0.011073, -2.139437
149330516.383826, -0.000989, 0.003911, -0.003923, -0.000000, 0.000000, -0.952324, -12.123828, -20.705097, -52.074032, -3.129896, -0.010895, -2.138620
149330516.384769, -0.002463, -0.002450, -0.002943, -0.000000, 0.000000, -0.952324, -12.153318, -20.717678, -52.135483, -3.130157, -0.010659, -2.137845
149330516.385997, -0.000019, -0.004894, -0.000194, -0.000000, -0.015483, -0.997673, -12.176910, -20.727741, -52.184643, -3.130077, -0.010387, -2.137477
149330516.387198, -0.005102, 0.001189, -0.000788, 0.014889, -0.015483, -0.967441, -12.134175, -20.756201, -52.153999, -3.130048, -0.010501, -2.137656
149330516.388254, -0.004098, -0.000032, -0.001071, 0.014889, -0.015483, -0.967441, -12.099987, -20.778969, -52.129486, -3.130002, -0.010599, -2.137795
149330516.389688, -0.000423, -0.000330, 0.000447, -0.000000, 0.000000, -0.982557, -12.072637, -20.797182, -52.109875, -3.130244, -0.010387, -2.136979
149330516.390923, -0.001012, -0.000024, -0.001057, -0.000000, 0.000000, -0.982557, -12.091828, -20.770937, -52.070862, -3.130487, -0.010183, -2.136186
149330516.391979, -0.000692, -0.002416, 0.001656, -0.000000, -0.015483, -0.982557, -12.107183, -20.749941, -52.039650, -3.130403, -0.009954, -2.135814
149330516.393386, 0.002612, -0.002066, 0.004312, -0.000000, -0.015483, -0.982557, -12.119466, -20.733145, -52.014683, -3.130277, -0.009725, -2.135509
149330516.394642, -0.000433, -0.001424, 0.001231, -0.015630, -0.015483, -0.982557, -12.129292, -20.801340, -51.971386, -3.130206, -0.009192, -2.134523
149330516.395693, -0.002816, 0.000998, 0.001504, -0.000000, -0.015483, -0.982557, -12.137154, -20.855896, -51.936749, -3.130149, -0.009018, -2.134158
149330516.396999, -0.000066, 0.000977, 0.001772, -0.000000, -0.015483, -0.982557, -12.143442, -20.797501, -51.932362, -3.130065, -0.008849, -2.133838
149330516.398249, -0.003354, -0.001735, 0.000239, 0.014889, 0.000000, -0.982557, -12.148473, -20.750784, -51.928852, -3.130336, -0.008954, -2.133728
149330516.399238, -0.002087, 0.002189, -0.000065, 0.014889, 0.000000, -0.982557, -12.152497, -20.713409, -51.926044, -3.130581, -0.009100, -2.133636
149330516.400314, -0.001146, -0.001445, -0.001857, -0.000000, -0.015483, -0.982557, -12.196790, -20.724327, -51.947121, -3.130500, -0.008902, -2.133356
149330516.401567, -0.002019, -0.001714, -0.002117, -0.000000, -0.015483, -0.982557, -12.232224, -20.733061, -51.963982, -3.130432, -0.008703, -2.133097
149330516.402623, -0.000482, -0.002575, 0.001814, -0.000000, -0.015483, -0.982557, -12.260571, -20.740047, -51.977470, -3.130346, -0.008502, -2.132905
149330516.403588, -0.001069, -0.000129, 0.001178, -0.000000, -0.015483, -0.982557, -12.283250, -20.786453, -52.034912, -3.130267, -0.008330, -2.132705
149330516.404909, 0.003438, -0.001322, 0.001751, 0.014889, -0.015483, -0.967441, -12.260320, -20.823578, -52.080864, -3.130130, -0.008455, -2.133069
149330516.406080, 0.005459, -0.004583, -0.001874, 0.014889, -0.015483, -0.967441, -12.241975, -20.853279, -52.117626, -3.129978, -0.008542, -2.133354
149330516.408529, -0.000038, -0.000301, 0.001156, -0.000000, -0.015483, -0.967441, -12.288908, -20.877039, -52.030415, -3.129892, -0.008363, -2.133132
149330516.410384, 0.002355, 0.002696, 0.000833, -0.000000, -0.015483, -0.967441, -12.264846, -20.855230, -52.030617, -3.129764, -0.008244, -2.132895
149330516.412256, 0.002305, 0.003237, -0.001876, -0.000000, 0.000000, -0.967441, -12.245596, -20.837784, -52.030781, -3.129961, -0.008143, -2.132244
149330516.413267, 0.000463, -0.001914, -0.003331, 0.014889, -0.015483, -0.967441, -12.230196, -20.823826, -52.030910, -3.129870, -0.008269, -2.132538
149330516.414098, 0.000453, -0.000379, -0.001766, 0.014889, -0.015483, -0.967441, -12.238413, -20.812660, -51.984367, -3.129782, -0.008410, -2.132856
149330516.415144, 0.001938, -0.001268, 0.001560, 0.014889, 0.000000, -0.967441, -12.244987, -20.803728, -51.947132, -3.129998, -0.008536, -2.132831
149330516.416448, 0.001299, -0.000942, 0.002125, 0.014889, 0.000000, -0.967441, -12.250245, -20.796581, -51.917343, -3.130213, -0.008661, -2.132825
149330516.417663, -0.000223, 0.003264, 0.000585, 0.014889, -0.015483, -0.982557, -12.254452, -20.770456, -51.916836, -3.130129, -0.008830, -2.133173
149330516.418553, 0.000380, 0.000504, 0.004759, 0.014889, -0.015483, -0.982557, -12.257817, -20.749557, -51.916431, -3.130041, -0.008961, -2.133560
149330516.419606, 0.004558, 0.000493, 0.004360, -0.000000, -0.030966, -0.967441, -12.260509, -20.732838, -51.916107, -3.129584, -0.008789, -2.133783
149330516.420628, -0.000621, -0.001012, 0.000381, -0.000000, -0.030966, -0.967441, -12.201055, -20.719461, -51.915848, -3.129190, -0.008604, -2.133923
149330516.421651, 0.002681, 0.003494, -0.000524, 0.014889, -0.015483, -0.982557, -12.153490, -20.708761, -51.915642, -3.129097, -0.008770, -2.134194
149330516.422666, -0.002758, 0.001328, -0.000214, 0.014889, -0.015483, -0.982557, -12.115438, -20.700201, -51.915474, -3.129060, -0.008911, -2.134440
149330516.423728, 0.000889, -0.000195, 0.001884, 0.014889, -0.015483, -0.982557, -12.084997, -20.693352, -51.915340, -3.128987, -0.009034, -2.134684
149330516.424728, -0.000027, -0.000490, 0.000648, 0.014889, -0.015483, -0.982557, -12.101717, -20.626648, -51.961884, -3.128925, -0.009152, -2.134953
149330516.425784, -0.008100, 0.000716, -0.003552, -0.000000, -0.015483, -0.997673, -12.115093, -20.573284, -51.999119, -3.128953, -0.008977, -2.134632
149330516.426810, -0.004341, -0.002289, -0.000487, -0.000000, -0.015483, -0.997673, -12.125794, -20.530594, -52.028904, -3.128940, -0.008774, -2.134376
149330516.427867, 0.000235, -0.001942, 0.001018, -0.000000, 0.000000, -0.967441, -12.113818, -20.578075, -52.006084, -3.129194, -0.008582, -2.133755
149330516.428870, 0.001725, -0.000406, -0.001096, -0.000000, 0.000000, -0.967441, -12.104238, -20.616060, -51.987831, -3.129427, -0.008411, -2.133102
149330516.429894, -0.003394, 0.002892, 0.000422, 0.014889, -0.030966, -0.967441, -12.096573, -20.646448, -51.973228, -3.129067, -0.008586, -2.133804
149330516.430919, 0.000265, 0.002831, -0.003175, 0.014889, -0.030966, -0.967441, -12.110978, -20.650351, -52.031517, -3.128678, -0.008757, -2.134466
149330516.431932, 0.001157, 0.003369, -0.002211, -0.000000, -0.015483, -0.967441, -12.122502, -20.653473, -52.078148, -3.128606, -0.008615, -2.134152
149330516.433018, -0.000960, 0.002102, -0.002165, -0.000000, -0.015483, -0.967441, -12.131721, -20.655970, -52.115452, -3.128557, -0.008465, -2.133847
149330516.434020, 0.001788, 0.001186, 0.003028, -0.000000, -0.015483, -1.027906, -12.118560, -20.617151, -52.028675, -3.128500, -0.008307, -2.133587
149330516.435039, 0.000872, 0.000575, 0.000279, 0.014889, -0.015483, -0.982557, -12.108031, -20.586096, -51.959255, -3.128439, -0.008450, -2.133898
149330516.436074, 0.001153, 0.002656, -0.001820, 0.014889, -0.015483, -0.982557, -12.099608, -20.561253, -51.903717, -3.128376, -0.008612, -2.134186
149330516.437153, 0.001129, -0.002483, 0.000610, 0.014889, -0.015483, -0.982557, -12.092870, -20.541378, -51.859287, -3.128315, -0.008716, -2.134496
149330516.438161, 0.003497, -0.000936, 0.001793, 0.014889, -0.015483, -0.982557, -12.128551, -20.607109, -51.870392, -3.128232, -0.008836, -2.134807
149330516.439178, -0.000165, 0.000579, -0.000038, 0.014889, -0.015483, -0.967441, -12.157097, -20.659695, -51.879276, -3.128181, -0.008973, -2.135104
149330516.440175, 0.001334, -0.000330, -0.002729, 0.014889, -0.015483, -0.967441, -12.179934, -20.701763, -51.886383, -3.128118, -0.009099, -2.135366
149330516.441245, 0.001605, -0.001818, -0.001475, 0.014889, -0.015483, -0.967441, -12.198203, -20.694603, -51.915394, -3.128051, -0.009206, -2.135650
149330516.442259, 0.002468, 0.000612, 0.000948, 0.014889, -0.015483, -0.967441, -12.212818, -20.688873, -51.938602, -3.127978, -0.009336, -2.135968
149330516.443282, 0.001818, -0.000597, 0.002423, -0.000000, -0.030966, -0.967441, -12.224510, -20.684290, -51.957169, -3.127592, -0.009144, -2.136119
149330516.444316, -0.002706, 0.000911, 0.002970, -0.000000, -0.030966, -0.967441, -12.192791, -20.619398, -51.948696, -3.127258, -0.008971, -2.136280
149330516.445340, -0.005340, 0.001789, 0.001113, -0.000000, 0.000000, -0.967441, -12.167416, -20.567486, -51.941917, -3.127601, -0.008814, -2.135665
149330516.446387, -0.006124, -0.002136, 0.002585, -0.000000, 0.000000, -0.967441, -12.147116, -20.525955, -51.936497, -3.127946, -0.008619, -2.135080
149330516.447397, -0.002706, -0.000895, 0.000438, -0.000000, -0.015483, -0.982557, -12.130876, -20.635588, -51.908836, -3.127932, -0.008438, -2.134786
149330516.448427, 0.002733, 0.000320, 0.001026, -0.000000, -0.015483, -0.982557, -12.117884, -20.723295, -51.886707, -3.127864, -0.008272, -2.134454
149330516.449472, 0.001479, 0.000911, 0.001005, -0.000000, -0.015483, -0.967441, -12.107490, -20.793461, -51.869003, -3.127805, -0.008115, -2.134097
149330516.450498, 0.003242, 0.001191, 0.000685, -0.000000, -0.015483, -0.967441, -12.099174, -20.849592, -51.854843, -3.127729, -0.007964, -2.133712
149330516.451537, 0.001679, -0.001824, 0.000969, -0.000000, 0.000000, -0.967441, -12.133595, -20.792458, -51.866837, -3.127992, -0.007791, -2.133027
149330516.452575, 0.003139, 0.000905, 0.002444, -0.000000, 0.000000, -0.967441, -12.161132, -20.746750, -51.876431, -3.128234, -0.007649, -2.132410
149330516.453591, 0.001278, 0.000587, 0.000897, 0.014889, -0.030966, -0.982557, -12.183162, -20.710182, -51.884106, -3.127861, -0.007811, -2.133138
149330516.454626, 0.004840, -0.001219, -0.001514, 0.014889, -0.030966, -0.982557, -12.180249, -20.660521, -51.936893, -3.127460, -0.007951, -2.133850
149330516.455673, -0.002139, -0.001194, -0.002977, 0.014889, -0.015483, -0.982557, -12.177918, -20.620792, -51.979126, -3.127451, -0.008084, -2.134156
149330516.456683, 0.001793, -0.001467, -0.001120, 0.014889, -0.015483, -0.982557, -12.176054, -20.589008, -52.012913, -3.127402, -0.008211, -2.134489
149330516.457721, 0.005642, -0.000839, 0.000399, 0.014889, -0.030966, -0.997673, -12.112953, -20.686031, -51.993294, -3.127010, -0.008342, -2.135114
149330516.458768, 0.007018, -0.003213, 0.002184, 0.014889, -0.030966, -0.997673, -12.062472, -20.763649, -51.977596, -3.126611, -0.008444, -2.135669
149330516.459794, 0.008365, 0.001938, 0.001241, -0.000000, -0.015483, -0.967441, -12.022088, -20.825743, -51.965038, -3.126508, -0.008294, -2.135213
149330516.460796, 0.003106, 0.002196, -0.000579, -0.000000, -0.015483, -0.967441, -11.989780, -20.875418, -51.954994, -3.126461, -0.008150, -2.134702
149330516.461889, -0.000547, -0.001139, -0.000866, -0.000000, -0.030966, -0.967441, -12.046081, -20.935566, -51.946957, -3.126130, -0.007974, -2.134593
149330516.462876, -0.002031, 0.000679, 0.000349, -0.000000, -0.030966, -0.967441, -12.091121, -20.983685, -51.940529, -3.125819, -0.007820, -2.134510
149330516.463890, -0.004081, 0.000664, -0.001154, -0.000000, -0.030966, -0.967441, -12.127152, -21.022181, -51.935387, -3.125536, -0.007670, -2.134423
149330516.464955, 0.002284, 0.002444, 0.000066, -0.000000, -0.015483, -0.952324, -12.135442, -20.910120, -51.907948, -3.125510, -0.007542, -2.134031
149330516.465967, 0.003731, -0.000597, 0.000065, -0.000000, -0.015483, -0.952324, -12.142073, -20.820471, -51.885998, -3.125470, -0.007386, -2.133691
149330516.466988, -0.001767, 0.000014, -0.001157, 0.014889, -0.015483, -0.997673, -12.147378, -20.748753, -51.868439, -3.125501, -0.007536, -2.133922
149330516.468020, 0.002456, -0.001182, 0.000363, 0.014889, -0.015483, -0.997673, -12.131085, -20.711784, -51.877712, -3.125489, -0.007672, -2.134170
149330516.469066, -0.000585, 0.000337, -0.001738, -0.000000, -0.015483, -0.967441, -12.118052, -20.682211, -51.885132, -3.125498, -0.007522, -2.133847
149330516.470089, 0.000324, 0.002124, 0.000392, -0.000000, -0.015483, -0.967441, -12.107624, -20.658552, -51.891068, -3.125497, -0.007393, -2.133556
149330516.471121, 0.002111, -0.002405, 0.003971, 0.014889, 0.000000, -0.967441, -12.160892, -20.700850, -51.872494, -3.125797, -0.007529, -2.133527
149330516.472146, -0.001521, -0.000860, 0.001795, 0.014889, 0.000000, -0.967441, -12.203506, -20.734688, -51.857635, -3.126128, -0.007677, -2.133492
149330516.473186, 0.002996, 0.000653, 0.001757, 0.014889, -0.015483, -0.982557, -12.237597, -20.761757, -51.845749, -3.126093, -0.007833, -2.133828
149330516.474183, 0.000840, 0.000640, 0.000823, 0.014889, -0.015483, -0.982557, -12.264870, -20.783413, -51.836239, -3.126081, -0.007986, -2.134158
149330516.475226, -0.002168, -0.002663, 0.000208, 0.014889, -0.015483, -0.982557, -12.266151, -20.821146, -51.851952, -3.126099, -0.008102, -2.134458
149330516.476269, -0.002720, -0.000215, 0.001399, 0.014889, -0.015483, -0.982557, -12.267177, -20.851334, -51.864525, -3.126122, -0.008240, -2.134751
149330516.477276, -0.004457, -0.001107, 0.001370, -0.000000, -0.015483, -0.982557, -12.267997, -20.875483, -51.874580, -3.126162, -0.008064, -2.134465
149330516.478345, -0.001373, 0.001906, 0.000743, -0.000000, -0.015483, -0.982557, -12.248116, -20.853985, -51.882626, -3.126170, -0.007923, -2.134174
149330516.479359, -0.003736, -0.000526, -0.000170, -0.000000, -0.030966, -0.982557, -12.232213, -20.836788, -51.889061, -3.125886, -0.007760, -2.134255
149330516.480384, -0.001864, 0.000382, -0.000764, -0.000000, -0.030966, -0.982557, -12.219490, -20.823030, -51.894211, -3.125588, -0.007609, -2.134325
149330516.481420, 0.002412, 0.001909, -0.001375, 0.014889, -0.030966, -1.027906, -12.270921, -20.893656, -51.875008, -3.125284, -0.007770, -2.134906
149330516.482464, -0.000329, 0.004261, -0.002243, 0.014889, -0.030966, -1.027906, -12.312065, -20.950157, -51.859646, -3.125013, -0.007952, -2.135468
149330516.483493, 0.003947, -0.000321, -0.003465, 0.014889, -0.015483, -0.982557, -12.344980, -20.995358, -51.847355, -3.124991, -0.008093, -2.135680
149330516.484493, 0.000874, 0.000284, -0.002196, 0.014889, -0.015483, -0.982557, -12.289167, -20.949886, -51.837524, -3.125000, -0.008238, -2.135884
149330516.485532, -0.002434, -0.000021, -0.001552, 0.014889, -0.015483, -0.967441, -12.244517, -20.913509, -51.829659, -3.125038, -0.008381, -2.136089
149330516.486578, -0.002682, -0.000319, 0.000275, 0.014889, -0.015483, -0.967441, -12.208797, -20.884407, -51.823364, -3.125077, -0.008517, -2.136296
149330516.487580, 0.003056, -0.002107, -0.001824, 0.029778, 0.000000, -0.982557, -12.180221, -20.861126, -51.818329, -3.125381, -0.008929, -2.136623
149330516.488624, -0.002989, 0.000330, 0.000308, 0.029778, 0.000000, -0.982557, -12.116286, -20.760868, -51.837624, -3.125739, -0.009357, -2.136966
149330516.489662, -0.006813, 0.000323, -0.001194, 0.029778, -0.030966, -0.967441, -12.065139, -20.680660, -51.853062, -3.125498, -0.009798, -2.138097
149330516.490708, -0.002782, 0.002110, -0.000870, 0.014889, -0.030966, -0.967441, -12.024221, -20.616495, -51.865410, -3.125210, -0.009936, -2.138646
149330516.491710, 0.001163, 0.001169, -0.001449, 0.014889, -0.030966, -0.967441, -12.032560, -20.667204, -51.898613, -3.124888, -0.010060, -2.139161
149330516.492764, -0.001851, -0.003640, 0.000076, 0.014889, -0.015483, -0.967441, -12.039231, -20.707771, -51.925175, -3.124921, -0.010128, -2.139267
149330516.494356, -0.005101, -0.000274, 0.002766, -0.000000, -0.015483, -0.967441, -12.044568, -20.740225, -51.946426, -3.125016, -0.009921, -2.138823
149330516.495195, -0.000210, -0.002960, 0.002109, -0.000000, -0.015483, -0.967441, -12.110447, -20.745779, -51.893456, -3.125031, -0.009698, -2.138408
149330516.496039, 0.001888, 0.001887, -0.000626, -0.000000, -0.015483, -0.967441, -12.163150, -20.750223, -51.851078, -3.125029, -0.009520, -2.138015
149330516.497002, 0.000652, 0.000651, 0.001480, 0.014889, -0.015483, -0.952324, -12.205312, -20.753778, -51.817177, -3.125029, -0.009648, -2.138267
149330516.497910, -0.001754, 0.003328, 0.001150, 0.014889, -0.015483, -0.952324, -12.177432, -20.736214, -51.790054, -3.125052, -0.009797, -2.138499
149330516.498934, 0.002768, 0.002062, 0.002023, 0.014889, -0.030966, -0.982557, -12.155128, -20.722162, -51.768356, -3.124726, -0.009928, -2.139088
149330516.499960, -0.002373, -0.000074, -0.001907, 0.014889, -0.030966, -0.982557, -12.137286, -20.710922, -51.750999, -3.124459, -0.010036, -2.139618
149330516.501011, -0.002921, 0.000226, 0.001123, 0.014889, -0.015483, -0.982557, -12.123012, -20.701929, -51.737114, -3.124516, -0.010140, -2.139770
149330516.502034, -0.001365, 0.000222, 0.000203, 0.014889, -0.015483, -0.982557, -12.132129, -20.735550, -51.749329, -3.124557, -0.010242, -2.139901
149330516.503072, 0.000458, -0.001876, 0.000796, -0.000000, -0.015483, -0.982557, -12.139422, -20.762447, -51.759102, -3.124580, -0.010019, -2.139462
149330516.504077, 0.001644, 0.000256, -0.003705, -0.000000, -0.015483, -0.982557, -12.145257, -20.783966, -51.766922, -3.124591, -0.009822, -2.138982
149330516.505107, -0.000782, 0.001148, 0.000559, 0.014889, -0.046450, -1.012789, -12.170462, -20.780773, -51.796501, -3.124025, -0.009943, -2.139890
149330516.506173, -0.000467, -0.001567, 0.000547, 0.014889, -0.046450, -1.012789, -12.190625, -20.778217, -51.820164, -3.123467, -0.010034, -2.140797
149330516.507196, -0.002251, -0.002730, -0.000362, 0.014889, -0.015483, -0.982557, -12.206756, -20.776173, -51.839092, -3.123537, -0.010109, -2.140937
149330516.508195, -0.005493, -0.002972, -0.001251, 0.014889, -0.015483, -0.982557, -12.158051, -20.733721, -51.877560, -3.123637, -0.010180, -2.141051
149330516.510191, 0.001799, -0.001414, -0.001524, 0.029778, -0.015483, -0.982557, -12.119088, -20.699760, -51.908333, -3.123653, -0.010555, -2.141681
149330516.511318, -0.000930, 0.002204, 0.000302, -0.000000, -0.030966, -0.967441, -12.087917, -20.672592, -51.932953, -3.123382, -0.010367, -2.141601
149330516.512319, -0.002106, 0.001559, 0.000894, -0.000000, -0.030966, -0.967441, -12.083517, -20.814121, -51.906002, -3.123128, -0.010174, -2.141456
149330516.513356, 0.000031, -0.000268, 0.001174, 0.029778, -0.030966, -0.997673, -12.079997, -20.927345, -51.884441, -3.122885, -0.010570, -2.142354
149330516.514413, -0.003259, -0.003551, 0.002645, 0.029778, -0.030966, -0.997673, -12.077181, -21.017925, -51.867191, -3.122680, -0.010922, -2.143201
149330516.515395, -0.005091, -0.001413, -0.000410, -0.000000, -0.015483, -0.952324, -12.033854, -20.947533, -51.900040, -3.122785, -0.010691, -2.142538
149330516.516459, 0.001594, -0.001981, -0.000102, -0.000000, -0.015483, -0.952324, -11.999194, -20.891218, -51.926319, -3.122823, -0.010458, -2.141889
149330516.517490, 0.005448, -0.001341, 0.001694, -0.000000, -0.015483, -0.967441, -11.971465, -20.846167, -51.947342, -3.122827, -0.010236, -2.141266
149330516.518494, -0.002740, -0.002210, -0.000435, -0.000000, -0.015483, -0.967441, -11.949283, -20.708084, -51.847542, -3.122912, -0.010010, -2.140678
149330516.519555, 0.001205, -0.005154, 0.001368, -0.000000, -0.015483, -0.967441, -11.931537, -20.597618, -51.767700, -3.122955, -0.009757, -2.140155
149330516.520571, 0.004767, -0.001756, -0.000454, 0.014889, -0.015483, -0.967441, -11.917339, -20.509245, -51.703827, -3.122961, -0.009851, -2.140236
149330516.521630, 0.004368, -0.001719, -0.002239, 0.014889, -0.015483, -0.967441, -11.967591, -20.520180, -51.746025, -3.122968, -0.009944, -2.140329
149330516.522649, -0.000209, -0.002879, -0.001594, 0.014889, -0.015483, -0.967441, -12.007792, -20.528927, -51.779781, -3.123023, -0.010025, -2.140453
149330516.523695, -0.000205, -0.000426, 0.000234, 0.014889, -0.015483, -0.967441, -12.039953, -20.535925, -51.806786, -3.123077, -0.010127, -2.140614
149330516.524704, 0.002491, 0.002872, -0.002163, 0.014889, -0.015483, -0.982557, -12.065682, -20.541523, -51.828392, -3.123108, -0.010256, -2.140749
149330516.525735, 0.000943, 0.002512, -0.003015, 0.014889, -0.015483, -0.982557, -12.086266, -20.607225, -51.868999, -3.123154, -0.010379, -2.140856
149330516.526755, 0.000923, 0.000366, -0.002054, 0.014889, -0.015483, -0.967441, -12.102732, -20.659788, -51.901485, -3.123194, -0.010483, -2.140974
149330516.527771, -0.003282, -0.001137, -0.003506, 0.014889, -0.015483, -0.967441, -12.115905, -20.701838, -51.927475, -3.123275, -0.010570, -2.141066
149330516.528834, -0.002615, 0.003372, -0.003432, 0.014889, 0.000000, -0.982557, -12.146979, -20.653845, -51.878296, -3.123668, -0.010700, -2.140814
149330516.529832, 0.004018, -0.001782, -0.000071, 0.014889, 0.000000, -0.982557, -12.171840, -20.615452, -51.838951, -3.123987, -0.010773, -2.140635
149330516.530861, 0.002737, -0.001146, 0.000230, 0.014889, 0.000000, -0.967441, -12.191728, -20.584736, -51.807476, -3.124311, -0.010855, -2.140499
149330516.532183, 0.000886, 0.000971, -0.001868, 0.014889, 0.000000, -0.967441, -12.187101, -20.600981, -51.852268, -3.124645, -0.010960, -2.140328
149330516.533785, -0.000030, 0.001250, -0.000633, -0.000000, -0.015483, -0.967441, -12.183400, -20.613976, -51.888100, -3.124666, -0.010760, -2.139969
149330516.535051, -0.000029, 0.000326, 0.000577, -0.000000, 0.000000, -0.982557, -12.180440, -20.624372, -51.893440, -3.125009, -0.010555, -2.139260
149330516.536177, 0.002064, 0.000917, -0.001230, -0.000000, 0.000000, -0.982557, -12.178071, -20.632690, -51.897713, -3.125322, -0.010360, -2.138540
149330516.537136, -0.001268, 0.001496, -0.001802, -0.000000, -0.015483, -0.967441, -12.176176, -20.639343, -51.901131, -3.125341, -0.010168, -2.138193
149330516.538327, -0.000643, 0.003857, -0.001465, -0.000000, -0.015483, -0.967441, -12.133588, -20.644667, -51.927189, -3.125355, -0.010010, -2.137819
149330516.539629, 0.005350, 0.002878, -0.000238, -0.000000, -0.030966, -0.982557, -12.099517, -20.648926, -51.948036, -3.124982, -0.009846, -2.137818
149330516.540570, 0.000155, 0.001622, 0.000664, -0.000000, -0.030966, -0.982557, -12.072260, -20.652332, -51.964714, -3.124683, -0.009664, -2.137803
149330516.541694, 0.001945, 0.000990, 0.001248, 0.029778, -0.015483, -0.982557, -12.009381, -20.675465, -51.978058, -3.124691, -0.010087, -2.138481
149330516.542766, 0.003997, -0.002918, 0.000325, 0.029778, -0.015483, -0.982557, -11.959079, -20.693972, -51.988731, -3.124678, -0.010460, -2.139090
149330516.543612, -0.000273, 0.000133, -0.000579, -0.000000, 0.000000, -0.982557, -11.918837, -20.708776, -51.997272, -3.125023, -0.010260, -2.138163
149330516.544429, -0.001762, 0.000429, -0.001165, -0.000000, 0.000000, -0.982557, -11.886643, -20.720621, -52.004105, -3.125373, -0.010066, -2.137221
149330516.545285, -0.000230, 0.000719, 0.000654, -0.000000, -0.015483, -0.952324, -11.881425, -20.750504, -52.009571, -3.125377, -0.009870, -2.136662
149330516.546325, 0.005755, 0.002199, 0.004228, -0.000000, -0.015483, -0.952324, -11.877250, -20.774410, -52.013943, -3.125320, -0.009695, -2.136139
149330516.547370, 0.001149, 0.002751, -0.000047, -0.000000, -0.015483, -0.952324, -11.873910, -20.793535, -52.017441, -3.125311, -0.009529, -2.135572
149330516.548407, -0.003660, -0.000297, -0.001242, 0.014889, -0.015483, -0.967441, -11.871238, -20.768021, -51.996914, -3.125354, -0.009643, -2.135591
149330516.549439, 0.003594, -0.000590, 0.000279, 0.014889, -0.015483, -0.967441, -11.869101, -20.747608, -51.980492, -3.125323, -0.009751, -2.135633
149330516.550477, -0.000967, 0.000021, 0.002366, 0.014889, -0.015483, -0.967441, -11.867391, -20.731277, -51.967354, -3.125338, -0.009863, -2.135701
149330516.551507, 0.001146, 0.000020, -0.001870, 0.014889, -0.015483, -0.967441, -11.866023, -20.718214, -51.956844, -3.125331, -0.009973, -2.135729
149330516.552501, -0.000373, 0.000618, -0.000933, -0.000000, -0.046450, -0.982557, -11.844392, -20.748579, -51.901791, -3.124715, -0.009783, -2.135926
149330516.553559, -0.002757, 0.000007, 0.002674, -0.000000, -0.046450, -0.982557, -11.827087, -20.772871, -51.857746, -3.124135, -0.009590, -2.136129
149330516.554592, -0.002699, 0.000605, 0.000226, -0.000000, -0.030966, -0.952324, -11.813244, -20.792305, -51.822510, -3.123863, -0.009402, -2.135905
149330516.555621, 0.003338, -0.000903, 0.002015, -0.000000, -0.030966, -0.952324, -11.863778, -20.746628, -51.864292, -3.123534, -0.009204, -2.135764
149330516.556660, -0.002712, -0.002379, -0.000120, -0.000000, -0.015483, -0.982557, -11.904205, -20.710085, -51.897720, -3.123610, -0.008996, -2.135250
149330516.557664, -0.000263, -0.002030, 0.001377, -0.000000, -0.015483, -0.982557, -11.936547, -20.680851, -51.924461, -3.123659, -0.008797, -2.134797
149330516.558700, 0.004825, -0.002884, 0.002245, 0.014889, 0.000000, -0.982557, -11.900811, -20.616648, -51.899208, -3.123968, -0.008896, -2.134573
149330516.559751, 0.004425, 0.000466, 0.000703, 0.014889, 0.000000, -0.982557, -11.872223, -20.565285, -51.879005, -3.124274, -0.009028, -2.134340
149330516.560737, -0.000154, 0.000755, -0.001405, 0.014889, -0.015483, -0.982557, -11.849352, -20.524195, -51.862843, -3.124307, -0.009158, -2.134462
149330516.561787, -0.002841, -0.001354, -0.001076, 0.014889, -0.015483, -0.982557, -11.831056, -20.491322, -51.849915, -3.124367, -0.009263, -2.134585
149330516.563602, 0.000807, -0.001625, 0.001339, 0.014889, -0.030966, -0.967441, -11.878028, -20.465023, -51.862892, -3.124059, -0.009361, -2.135204
149330516.564589, -0.002248, 0.000208, 0.000728, -0.000000, -0.030966, -1.012789, -11.915606, -20.443985, -51.873276, -3.123820, -0.009175, -2.135199
149330516.565428, 0.002285, -0.000095, 0.000712, -0.000000, -0.030966, -1.012789, -11.966204, -20.549604, -51.834934, -3.123545, -0.008991, -2.135180
149330516.567534, 0.000143, 0.000505, -0.002592, 0.014889, -0.030966, -0.982557, -12.006682, -20.634100, -51.804260, -3.123276, -0.009129, -2.135698
149330516.568419, -0.002252, -0.000403, -0.001640, 0.014889, -0.030966, -0.982557, -12.039065, -20.701696, -51.779724, -3.123033, -0.009250, -2.136235
149330516.569298, -0.002503, -0.002189, -0.000410, -0.000000, -0.015483, -0.967441, -12.064972, -20.714956, -51.806740, -3.123108, -0.009046, -2.135830
149330516.570134, 0.001138, -0.001843, 0.000197, -0.000000, -0.015483, -0.967441, -12.085697, -20.725565, -51.828354, -3.123150, -0.008851, -2.135450
149330516.571072, 0.001114, -0.003599, -0.000704, 0.014889, -0.015483, -0.967441, -12.102277, -20.734051, -51.845646, -3.123189, -0.008948, -2.135654
149330516.572086, -0.006983, -0.001729, -0.000091, 0.014889, -0.015483, -0.967441, -12.095004, -20.700024, -51.859478, -3.123307, -0.009060, -2.135870
149330516.573114, -0.004444, 0.001297, -0.002182, 0.014889, -0.015483, -0.982557, -12.089187, -20.672802, -51.870544, -3.123403, -0.009194, -2.136056
149330516.574137, 0.000733, 0.004260, -0.003332, 0.014889, -0.015483, -0.982557, -12.084533, -20.651024, -51.879398, -3.123445, -0.009357, -2.136235
149330516.575206, -0.000180, 0.002975, 0.001821, 0.014889, -0.015483, -0.982557, -12.080810, -20.633602, -51.886482, -3.123495, -0.009503, -2.136467
149330516.576203, 0.008794, 0.001417, 0.004773, 0.014889, -0.015483, -0.982557, -12.077830, -20.701298, -51.868824, -3.123456, -0.009628, -2.136688
149330516.577242, 0.001134, -0.001304, -0.002205, 0.014889, -0.015483, -0.982557, -12.075447, -20.755455, -51.854698, -3.123493, -0.009726, -2.136809
149330516.578295, -0.002179, -0.001576, -0.000963, -0.000000, -0.015483, -0.997673, -12.073541, -20.798780, -51.843399, -3.123569, -0.009516, -2.136344
149330516.579326, -0.005721, 0.001448, 0.000553, -0.000000, -0.015483, -0.997673, -12.051479, -20.772217, -51.834358, -3.123679, -0.009341, -2.135900
149330516.580333, -0.002611, 0.000221, 0.001139, -0.000000, -0.030966, -0.997673, -12.033830, -20.750965, -51.827126, -3.123443, -0.009155, -2.135839
149330516.581358, -0.004051, -0.001577, -0.002473, -0.000000, -0.030966, -0.997673, -12.019711, -20.733963, -51.821339, -3.123227, -0.008956, -2.135741
149330516.582400, -0.006058, -0.003936, -0.001524, -0.000000, -0.015483, -0.967441, -12.049488, -20.699953, -51.770061, -3.123338, -0.008738, -2.135329
149330516.583406, 0.001245, -0.002358, 0.001797, -0.000000, -0.015483, -0.967441, -12.073310, -20.672745, -51.729042, -3.123372, -0.008540, -2.134987
149330516.584469, 0.005704, -0.000814, -0.000035, 0.014889, -0.015483, -0.982557, -12.092367, -20.650978, -51.696224, -3.123363, -0.008664, -2.135222
149330516.585476, -0.003685, -0.003189, -0.000632, 0.014889, -0.015483, -0.982557, -12.107614, -20.674381, -51.646645, -3.123449, -0.008761, -2.135444
149330516.586542, 0.000877, -0.001327, 0.000278, -0.000000, -0.030966, -0.982557, -12.119810, -20.693104, -51.606983, -3.123173, -0.008573, -2.135484
149330516.587543, -0.003327, 0.000195, 0.002665, -0.000000, -0.030966, -0.982557, -12.129567, -20.708082, -51.575253, -3.122943, -0.008403, -2.135545
149330516.588608, 0.001826, -0.002500, 0.003505, 0.014889, -0.015483, -0.982557, -12.137373, -20.720066, -51.549870, -3.122982, -0.008511, -2.135803
149330516.589598, -0.000006, 0.000842, 0.000741, 0.014889, -0.015483, -0.982557, -12.082008, -20.688835, -51.576210, -3.123040, -0.008651, -2.136001
149330516.590654, -0.000305, 0.002618, 0.000127, 0.014889, -0.015483, -0.967441, -12.037717, -20.663851, -51.597282, -3.123095, -0.008813, -2.136185
149330516.591665, 0.000598, 0.001367, 0.000124, 0.014889, -0.015483, -0.967441, -12.002284, -20.643864, -51.614140, -3.123139, -0.008957, -2.136350
149330516.592687, -0.003301, -0.000456, -0.001971, -0.000000, -0.015483, -0.982557, -12.015010, -20.627874, -51.650951, -3.123228, -0.008775, -2.135922
149330516.593724, 0.003645, -0.001044, -0.001631, -0.000000, -0.015483, -0.982557, -12.025191, -20.615082, -51.680401, -3.123245, -0.008589, -2.135519
149330516.594767, -0.003010, 0.003164, 0.001095, 0.014889, -0.015483, -0.967441, -12.033336, -20.604849, -51.703960, -3.123323, -0.008757, -2.135749
149330516.595775, -0.000255, 0.002200, -0.001021, 0.014889, -0.015483, -0.967441, -12.019315, -20.657887, -51.699482, -3.123372, -0.008912, -2.135919
149330516.597000, -0.003240, 0.000360, -0.001000, 0.014889, 0.000000, -0.982557, -12.008099, -20.700317, -51.695900, -3.123775, -0.009043, -2.135674
149330516.597879, 0.000117, 0.001249, 0.001114, 0.014889, 0.000000, -0.982557, -11.999125, -20.734261, -51.693035, -3.124129, -0.009178, -2.135436
149330516.598870, -0.001081, -0.001767, 0.003184, 0.029778, -0.015483, -0.997673, -11.991947, -20.761415, -51.690742, -3.124184, -0.009573, -2.136095
149330516.599929, -0.000460, 0.001260, -0.001069, 0.029778, -0.015483, -0.997673, -12.047813, -20.885181, -51.735558, -3.124233, -0.009991, -2.136682
149330516.600953, -0.001946, -0.001457, -0.001645, 0.014889, 0.000000, -0.997673, -12.092506, -20.984194, -51.771408, -3.124599, -0.010078, -2.136347
149330516.601990, 0.004374, -0.002922, 0.000782, 0.014889, 0.000000, -0.997673, -12.128261, -21.063404, -51.800087, -3.124894, -0.010147, -2.136034
149330516.603027, 0.000694, -0.002262, 0.001064, 0.014889, -0.015483, -0.967441, -12.054182, -20.983915, -51.776382, -3.124901, -0.010229, -2.136096
149330516.604045, 0.001278, -0.001915, -0.000154, 0.014889, -0.015483, -0.967441, -11.994920, -20.920324, -51.757420, -3.124902, -0.010313, -2.136130
149330516.605066, 0.003344, -0.003071, -0.002842, 0.014889, -0.015483, -0.967441, -11.947510, -20.869452, -51.742249, -3.124882, -0.010384, -2.136126
149330516.606091, 0.000881, -0.001810, -0.000390, 0.014889, -0.015483, -0.967441, -11.971190, -20.828753, -51.730114, -3.124888, -0.010466, -2.136181
149330516.607122, 0.003255, -0.001174, 0.001113, 0.014889, -0.015483, -0.967441, -11.990135, -20.796194, -51.720406, -3.124869, -0.010553, -2.136279
149330516.608183, -0.003093, 0.000345, -0.002498, -0.000000, -0.015483, -0.982557, -12.005291, -20.770147, -51.712639, -3.124923, -0.010346, -2.135777
149330516.609344, 0.002653, 0.002132, 0.000544, -0.000000, -0.015483, -0.982557, -12.017416, -20.810534, -51.729752, -3.124914, -0.010164, -2.135308
149330516.610370, -0.006373, -0.002697, -0.001859, -0.000000, 0.000000, -0.967441, -12.027116, -20.842842, -51.743439, -3.125316, -0.009940, -2.134465
149330516.611429, -0.002707, -0.000559, -0.002164, -0.000000, 0.000000, -0.967441, -12.034876, -20.868690, -51.754391, -3.125673, -0.009742, -2.133629
149330516.612372, 0.003096, 0.002495, -0.001553, 0.014889, -0.015483, -0.952324, -12.020547, -20.766918, -51.693180, -3.125639, -0.009883, -2.133802
149330516.613384, 0.005844, 0.001273, 0.000585, 0.014889, -0.015483, -0.952324, -12.009084, -20.685501, -51.644211, -3.125575, -0.010011, -2.134020
149330516.614664, 0.001568, -0.001475, 0.001501, 0.029778, 0.000000, -0.997673, -11.999913, -20.620367, -51.605034, -3.125879, -0.010386, -2.134393
149330516.615516, -0.002708, -0.000254, 0.001195, 0.029778, 0.000000, -0.997673, -11.992578, -20.568260, -51.573692, -3.126219, -0.010770, -2.134768
149330516.616780, 0.001263, 0.002801, 0.000279, -0.031260, -0.015483, -0.982557, -11.945636, -20.546984, -51.548622, -3.126230, -0.009953, -2.133107
149330516.618455, -0.000570, 0.001579, 0.000890, 0.014889, 0.000000, -0.967441, -11.908082, -20.529963, -51.528564, -3.126546, -0.010089, -2.132956
149330516.619477, -0.000570, 0.000357, 0.001806, 0.014889, 0.000000, -0.967441, -11.898576, -20.618385, -51.559166, -3.126852, -0.010199, -2.132767
149330516.620515, -0.003318, -0.001475, 0.000584, -0.000000, 0.000000, -0.967441, -11.890971, -20.689125, -51.583649, -3.127184, -0.009986, -2.131965
149330516.621559, 0.002790, 0.001884, 0.001806, -0.000000, 0.000000, -0.967441, -11.884887, -20.745716, -51.603233, -3.127448, -0.009811, -2.131163
149330516.622578, 0.002179, -0.000864, 0.000889, -0.000000, -0.015483, -0.982557, -11.859483, -20.688948, -51.665550, -3.127396, -0.009606, -2.130726
149330516.623615, 0.001873, -0.000254, -0.000943, -0.000000, -0.015483, -0.982557, -11.839160, -20.643534, -51.715401, -3.127348, -0.009411, -2.130285
149330516.624676, 0.000041, -0.001781, 0.002111, -0.000000, 0.000000, -0.967441, -11.822902, -20.607203, -51.755283, -3.127635, -0.009210, -2.129533
149330516.625748, -0.001792, -0.002086, 0.001195, -0.000000, 0.000000, -0.967441, -11.809896, -20.578136, -51.787189, -3.127937, -0.009008, -2.128790
149330516.626701, -0.004540, -0.000253, 0.001194, -0.000000, 0.000000, -0.952324, -11.840563, -20.554884, -51.789391, -3.128255, -0.008830, -2.128092
149330516.627761, -0.005150, 0.001274, -0.000943, -0.000000, 0.000000, -0.952324, -11.865097, -20.536282, -51.791153, -3.128578, -0.008672, -2.127413
149330516.628787, 0.001569, 0.000052, -0.000027, 0.014889, -0.015483, -0.967441, -11.884725, -20.521400, -51.792561, -3.128504, -0.008807, -2.127727
149330516.629805, 0.003096, 0.003106, -0.000943, 0.014889, -0.015483, -0.967441, -11.879889, -20.591127, -51.793686, -3.128416, -0.008970, -2.127990
149330516.630866, 0.003706, 0.002800, 0.000889, 0.014889, -0.015483, -0.967441, -11.876021, -20.646910, -51.794586, -3.128321, -0.009128, -2.128238
149330516.631887, 0.001873, 0.000968, 0.001500, 0.014889, -0.015483, -0.967441, -11.872928, -20.691536, -51.795307, -3.128248, -0.009263, -2.128464
149330516.632910, -0.003624, 0.004327, -0.000638, 0.014889, -0.015483, -0.967441, -11.870452, -20.666012, -51.772560, -3.128232, -0.009429, -2.128674
149330516.633930, -0.001486, -0.000865, -0.000638, -0.000000, -0.030966, -0.982557, -11.868472, -20.645592, -51.754364, -3.127884, -0.009232, -2.128676
149330516.634972, -0.000875, -0.003919, -0.000027, -0.000000, -0.030966, -0.982557, -11.866888, -20.629257, -51.739807, -3.127537, -0.009007, -2.128690
149330516.636184, 0.003706, 0.002495, 0.002416, 0.014889, -0.030966, -0.982557, -11.845084, -20.616188, -51.728161, -3.127146, -0.009164, -2.129310
149330516.637219, 0.002790, 0.002494, 0.002416, 0.014889, -0.030966, -0.967441, -11.827641, -20.605734, -51.718842, -3.126769, -0.009319, -2.129926
149330516.638188, 0.000957, -0.003919, -0.000333, -0.000000, -0.015483, -0.967441, -11.813687, -20.597370, -51.711388, -3.126738, -0.009095, -2.129514
149330516.639421, -0.000265, -0.003919, -0.001249, 0.014889, -0.015483, -0.982557, -11.843596, -20.631496, -51.728748, -3.126724, -0.009169, -2.129674
149330516.641241, -0.002708, -0.000559, -0.001249, 0.014889, -0.015483, -0.982557, -11.867524, -20.658796, -51.742638, -3.126755, -0.009279, -2.129829
149330516.642698, -0.000570, 0.000357, 0.000278, -0.000000, 0.000000, -0.982557, -11.866130, -20.701044, -51.777073, -3.127063, -0.009104, -2.129061
149330516.643578, -0.000264, 0.000052, -0.000638, -0.000000, 0.000000, -0.982557, -11.865014, -20.734842, -51.804619, -3.127360, -0.008928, -2.128284
149330516.644438, 0.001568, -0.000254, 0.001805, 0.029778, -0.015483, -1.012789, -11.864121, -20.761881, -51.826656, -3.127332, -0.009335, -2.128963
149330516.645270, 0.001873, 0.000663, 0.002416, 0.029778, -0.015483, -1.012789, -11.863407, -20.783512, -51.844288, -3.127302, -0.009741, -2.129625
149330516.646279, -0.000875, -0.000864, 0.001499, -0.000000, -0.015483, -0.997673, -11.903909, -20.678370, -51.788422, -3.127288, -0.009538, -2.129257
149330516.647311, -0.002708, -0.002086, -0.000639, -0.000000, -0.015483, -0.997673, -11.936310, -20.594255, -51.743729, -3.127293, -0.009326, -2.128937
149330516.648358, -0.004845, 0.000357, 0.001805, 0.014889, 0.000000, -0.967441, -11.962231, -20.526964, -51.707973, -3.127628, -0.009451, -2.128914
149330516.649376, -0.001180, 0.000663, -0.000333, 0.014889, 0.000000, -0.967441, -11.982967, -20.473131, -51.679371, -3.127919, -0.009576, -2.128908
149330516.650444, 0.002485, -0.002697, -0.000028, -0.000000, -0.015483, -0.982557, -11.917412, -20.654552, -51.656487, -3.127853, -0.009356, -2.128564
149330516.651471, 0.002485, 0.001274, -0.003082, -0.000000, -0.015483, -0.982557, -11.864967, -20.799690, -51.638180, -3.127789, -0.009182, -2.128095
149330516.652461, -0.002707, 0.003411, -0.002165, -0.000000, -0.015483, -0.982557, -11.823011, -20.915800, -51.623535, -3.127779, -0.009031, -2.127562
149330516.653483, -0.002096, 0.005244, -0.000944, -0.000000, -0.015483, -0.982557, -11.892129, -20.906647, -51.658466, -3.127764, -0.008903, -2.127108
149330516.654553, -0.006372, 0.003411, -0.001554, 0.014889, 0.000000, -0.967441, -11.947423, -20.899324, -51.686413, -3.128106, -0.009069, -2.126917
149330516.655576, -0.003317, 0.000051, 0.003027, 0.014889, 0.000000, -0.967441, -11.991658, -20.893467, -51.708771, -3.128408, -0.009197, -2.126809
149330516.656618, -0.002706, -0.002087, 0.002721, -0.000000, -0.015483, -0.997673, -11.924364, -20.766333, -51.633358, -3.128391, -0.008991, -2.126485
149330516.657641, -0.001484, 0.001273, -0.000333, -0.000000, -0.015483, -0.997673, -11.870529, -20.664625, -51.573029, -3.128361, -0.008823, -2.126143
149330516.659275, -0.001789, -0.001171, -0.000639, -0.000000, 0.000000, -0.997673, -11.827461, -20.583260, -51.524765, -3.128657, -0.008632, -2.125455
149330516.660194, 0.001876, -0.001476, -0.000333, -0.000000, 0.000000, -0.997673, -11.895688, -20.579391, -51.556126, -3.128901, -0.008451, -2.124840
149330516.661013, 0.001265, -0.001170, 0.002721, 0.014889, -0.015483, -0.982557, -11.950270, -20.576296, -51.581215, -3.128831, -0.008575, -2.125230
149330516.661969, -0.001484, -0.001781, -0.000639, 0.014889, -0.015483, -0.982557, -11.993936, -20.573820, -51.601288, -3.128786, -0.008691, -2.125617
149330516.662967, 0.000349, -0.001170, 0.001499, -0.000000, 0.015516, -1.012789, -11.987795, -20.694288, -51.570698, -3.129349, -0.008518, -2.124712
149330516.663837, 0.001570, 0.002495, 0.000888, -0.000000, 0.015516, -1.012789, -11.982882, -20.790663, -51.546227, -3.129891, -0.008382, -2.123778
149330516.664856, -0.002095, 0.000357, -0.000639, -0.000000, 0.015516, -1.012789, -11.978952, -20.867762, -51.526649, -3.130456, -0.008230, -2.122816
149330516.665859, -0.003317, -0.002392, -0.000639, 0.014889, -0.030966, -0.982557, -11.975808, -20.929441, -51.510986, -3.130084, -0.008352, -2.123455
149330516.667016, 0.002792, -0.000254, -0.000028, 0.014889, -0.030966, -0.982557, -11.993830, -20.795113, -51.591751, -3.129654, -0.008491, -2.124168
149330516.667931, -0.000873, -0.000559, 0.001194, -0.000000, -0.015483, -0.997673, -12.008246, -20.687649, -51.656364, -3.129591, -0.008316, -2.123977
149330516.668981, -0.002400, -0.001170, 0.000277, -0.000000, -0.015483, -0.997673, -12.019780, -20.601679, -51.708054, -3.129546, -0.008138, -2.123830
149330516.670011, 0.002181, 0.000052, 0.000277, -0.000000, -0.015483, -0.982557, -11.967398, -20.614534, -51.726082, -3.129451, -0.007975, -2.123647
149330516.671027, -0.002706, 0.000357, 0.000583, -0.000000, -0.015483, -0.982557, -11.925492, -20.624819, -51.740505, -3.129406, -0.007819, -2.123435
149330516.672044, -0.006370, 0.001884, -0.001555, 0.014889, -0.015483, -0.982557, -11.891968, -20.633047, -51.752045, -3.129400, -0.007985, -2.123752
149330516.673109, -0.003621, 0.001578, -0.001861, 0.014889, -0.015483, -0.982557, -11.906220, -20.741671, -51.691303, -3.129368, -0.008145, -2.124017
149330516.674120, -0.003315, -0.002087, -0.001860, -0.000000, -0.015483, -0.967441, -11.917623, -20.828569, -51.642708, -3.129326, -0.007961, -2.123682
149330516.675123, -0.001788, -0.001170, 0.000278, -0.000000, -0.015483, -0.967441, -11.926744, -20.898088, -51.603832, -3.129270, -0.007790, -2.123352
149330516.676359, 0.004015, -0.002697, -0.001249, 0.014889, 0.000000, -0.997673, -11.934042, -20.790438, -51.619381, -3.129468, -0.007901, -2.123255
149330516.677215, -0.003926, 0.004022, -0.002165, 0.014889, 0.000000, -0.997673, -11.898808, -20.704317, -51.631821, -3.129743, -0.008075, -2.123171
149330516.678316, 0.000656, 0.001273, 0.000583, 0.014889, -0.015483, -0.982557, -11.870620, -20.635420, -51.641769, -3.129659, -0.008231, -2.123496
149330516.679250, -0.002093, 0.001578, -0.000333, 0.014889, -0.015483, -0.982557, -11.848069, -20.580303, -51.649731, -3.129603, -0.008385, -2.123814
149330516.680301, 0.000656, 0.003105, -0.001249, -0.000000, -0.015483, -0.982557, -11.871102, -20.638250, -51.679424, -3.129522, -0.008249, -2.123534
149330516.681316, 0.002183, 0.000051, 0.001805, -0.000000, -0.015483, -0.982557, -11.889528, -20.684608, -51.703178, -3.129427, -0.008084, -2.123283
149330516.682389, 0.000350, -0.001782, 0.002110, -0.000000, -0.015483, -0.982557, -11.904269, -20.721695, -51.722183, -3.129353, -0.007903, -2.123036
149330516.683403, -0.000566, 0.001578, 0.002721, -0.000000, -0.015483, -0.982557, -11.916062, -20.751364, -51.714062, -3.129289, -0.007759, -2.122794
149330516.684426, 0.002793, 0.001578, 0.002415, -0.000000, -0.015483, -0.982557, -11.925496, -20.775099, -51.707565, -3.129193, -0.007619, -2.122551
149330516.685512, 0.000655, 0.000661, -0.000639, -0.000000, -0.015483, -0.982557, -11.933043, -20.794086, -51.702366, -3.129120, -0.007474, -2.122279
149330516.686506, -0.002704, -0.001782, -0.000334, -0.015630, -0.015483, -0.997673, -11.877472, -20.748053, -51.721531, -3.129096, -0.006992, -2.121374
149330516.687537, 0.000350, 0.000051, -0.000944, -0.015630, -0.015483, -0.997673, -11.833015, -20.711226, -51.736862, -3.129042, -0.006539, -2.120463
149330516.688543, 0.000350, 0.000051, -0.002777, -0.015630, -0.015483, -0.982557, -11.797450, -20.681763, -51.749130, -3.128984, -0.006089, -2.119533
149330516.689584, 0.001877, -0.000255, -0.002166, 0.029778, -0.015483, -0.982557, -11.768997, -20.658194, -51.758942, -3.128912, -0.006572, -2.120375
149330516.690607, 0.000961, 0.002494, 0.000889, 0.029778, -0.015483, -0.982557, -11.787308, -20.639338, -51.766792, -3.128851, -0.007073, -2.121253
149330516.691727, 0.000961, 0.004631, -0.000638, 0.014889, -0.015483, -0.997673, -11.801956, -20.624252, -51.773071, -3.128787, -0.007281, -2.121547
149330516.692668, -0.001483, 0.004631, -0.002471, 0.014889, -0.015483, -0.997673, -11.813675, -20.612185, -51.778095, -3.128747, -0.007477, -2.121834
149330516.693703, -0.004842, -0.002699, 0.000583, -0.000000, -0.015483, -0.967441, -11.823050, -20.704573, -51.758789, -3.128734, -0.007300, -2.121552
149330516.694728, 0.000961, 0.000355, 0.000583, -0.000000, -0.015483, -0.967441, -11.830550, -20.778482, -51.743347, -3.128663, -0.007157, -2.121249
149330516.696463, -0.001177, 0.001882, -0.000638, 0.014889, -0.015483, -0.967441, -11.836551, -20.837610, -51.730991, -3.128623, -0.007354, -2.121496
149330516.697320, 0.001267, 0.000966, 0.001194, 0.014889, -0.015483, -0.982557, -11.841351, -20.803280, -51.697784, -3.128557, -0.007518, -2.121762
149330516.698138, 0.000656, 0.000660, 0.000583, 0.014889, -0.015483, -0.982557, -11.845191, -20.775816, -51.671219, -3.128498, -0.007676, -2.122032
149330516.699300, 0.001266, 0.001271, 0.001499, 0.029778, -0.015483, -0.967441, -11.848263, -20.753845, -51.649967, -3.128435, -0.008153, -2.122893
149330516.700473, 0.001877, 0.000660, 0.000583, 0.029778, -0.015483, -0.967441, -11.809648, -20.715858, -51.609642, -3.128366, -0.008614, -2.123717
149330516.701334, -0.000872, -0.002089, -0.002471, 0.029778, -0.015483, -0.967441, -11.778755, -20.685471, -51.577381, -3.128326, -0.009041, -2.124488
149330516.702155, 0.002488, 0.002187, -0.000944, 0.029778, -0.015483, -0.982557, -11.754042, -20.661160, -51.551571, -3.128264, -0.009484, -2.125228
149330516.702962, -0.001788, 0.002492, -0.000333, 0.029778, -0.015483, -0.982557, -11.734271, -20.641710, -51.530922, -3.128237, -0.009921, -2.125953
149330516.704026, -0.000872, 0.000660, -0.001860, -0.000000, -0.015483, -0.967441, -11.718454, -20.687376, -51.584377, -3.128196, -0.009729, -2.125493
149330516.705037, -0.000566, -0.000257, 0.000584, -0.000000, -0.015483, -0.967441, -11.705801, -20.723907, -51.627140, -3.128152, -0.009532, -2.125041
149330516.706078, -0.000566, -0.000257, -0.000638, 0.014889, -0.015483, -0.982557, -11.695679, -20.753134, -51.661350, -3.128112, -0.009641, -2.125137
149330516.707097, -0.000566, 0.002492, -0.001249, 0.014889, -0.015483, -0.982557, -11.708117, -20.756107, -51.642071, -3.128072, -0.009776, -2.125232
149330516.708106, -0.002399, 0.002797, -0.000943, -0.000000, -0.015483, -0.982557, -11.718067, -20.758486, -51.626648, -3.128053, -0.009608, -2.124760
149330516.709138, -0.004536, 0.003102, -0.000638, -0.000000, -0.015483, -0.982557, -11.726027, -20.760387, -51.614311, -3.128057, -0.009447, -2.124305
149330516.710182, 0.001267, 0.000964, 0.002722, 0.029778, -0.030966, -0.982557, -11.691323, -20.680277, -51.581116, -3.127696, -0.009883, -2.125427
149330516.711207, -0.003314, 0.002186, -0.000638, 0.029778, -0.030966, -0.982557, -11.663560, -20.616188, -51.554558, -3.127388, -0.010322, -2.126505
149330516.712242, -0.000260, 0.000658, 0.001805, 0.014889, 0.000000, -0.982557, -11.641349, -20.564917, -51.533314, -3.127674, -0.010427, -2.126276
149330516.713271, -0.000260, -0.002090, 0.003943, 0.014889, 0.000000, -0.982557, -11.623580, -20.523899, -51.516319, -3.127954, -0.010501, -2.126079
149330516.714808, 0.002489, 0.002186, -0.000944, -0.000000, -0.015483, -0.982557, -11.650437, -20.593126, -51.549370, -3.127877, -0.010324, -2.125606
149330516.715851, -0.000260, 0.003712, -0.001860, -0.000000, -0.015483, -0.982557, -11.671924, -20.648508, -51.575809, -3.127841, -0.010155, -2.125130
149330516.716935, 0.000656, 0.002185, 0.002416, 0.014889, -0.015483, -0.967441, -11.709649, -20.754038, -51.596962, -3.127789, -0.010283, -2.125280
149330516.718506, -0.001482, 0.002185, 0.000278, -0.000000, -0.015483, -0.952324, -11.739829, -20.838463, -51.613884, -3.127765, -0.010110, -2.124813
149330516.719576, 0.001573, 0.002490, -0.003082, -0.000000, -0.015483, -0.952324, -11.763973, -20.906002, -51.627422, -3.127703, -0.009934, -2.124307
149330516.720592, 0.002794, 0.000352, -0.001860, -0.000000, -0.015483, -0.952324, -11.762753, -20.817177, -51.591606, -3.127630, -0.009739, -2.123862
149330516.722180, 0.005848, 0.004322, 0.002111, 0.014889, 0.000000, -0.967441, -11.761776, -20.746117, -51.562950, -3.127817, -0.009920, -2.123719
149330516.723500, 0.000961, 0.002489, 0.001805, -0.000000, -0.015483, -0.967441, -11.760995, -20.689268, -51.540028, -3.127762, -0.009753, -2.123377
149330516.724622, -0.002399, 0.001267, -0.000333, -0.000000, -0.015483, -0.967441, -11.760369, -20.643789, -51.521690, -3.127746, -0.009572, -2.123035
149330516.725944, -0.000872, 0.004016, 0.000583, 0.014889, -0.015483, -0.997673, -11.759870, -20.607407, -51.507019, -3.127725, -0.009731, -2.123280
149330516.727267, 0.000961, 0.004321, -0.002165, -0.000000, -0.015483, -0.982557, -11.759469, -20.680342, -51.471958, -3.127676, -0.009592, -2.122893
149330516.728549, 0.002793, 0.000655, 0.001805, -0.000000, -0.015483, -0.982557, -11.759149, -20.738689, -51.443909, -3.127606, -0.009408, -2.122537
149330516.729597, 0.001877, 0.000045, 0.003332, -0.000000, -0.015483, -0.982557, -11.758893, -20.785368, -51.421471, -3.127553, -0.009220, -2.122179
149330516.731015, 0.000350, 0.000350, -0.001555, -0.000000, -0.015483, -0.982557, -11.758688, -20.679853, -51.473492, -3.127516, -0.009040, -2.121819
149330516.732206, 0.000044, 0.001572, 0.000888, 0.014889, 0.000000, -0.982557, -11.758524, -20.595442, -51.515106, -3.127796, -0.009181, -2.121746
149330516.733032, 0.003403, 0.004625, 0.004859, 0.014889, 0.000000, -0.982557, -11.758393, -20.527912, -51.548401, -3.128044, -0.009338, -2.121734
149330516.733883, -0.001178, 0.001876, 0.000888, -0.000000, -0.015483, -1.012789, -11.758288, -20.575930, -51.481739, -3.128020, -0.009166, -2.121447
149330516.734912, -0.003010, 0.000349, 0.000582, -0.000000, -0.015483, -1.012789, -11.758204, -20.614344, -51.428410, -3.128017, -0.008986, -2.121146
149330516.735947, 0.005236, 0.004014, 0.002415, 0.014889, -0.030966, -0.982557, -11.758138, -20.645075, -51.385746, -3.127607, -0.009155, -2.121826
149330516.736986, 0.000044, 0.001570, 0.001498, 0.014889, -0.030966, -0.982557, -11.758084, -20.710476, -51.421589, -3.127258, -0.009296, -2.122452
149330516.738039, 0.002792, 0.004624, -0.000945, -0.000000, 0.000000, -0.952324, -11.737505, -20.762796, -51.450264, -3.127520, -0.009163, -2.121699
149330516.739046, -0.004538, 0.000959, -0.002167, -0.000000, 0.000000, -0.952324, -11.721042, -20.804653, -51.473202, -3.127849, -0.008995, -2.120920
149330516.740063, 0.001876, 0.000348, -0.002167, -0.000000, -0.015483, -0.997673, -11.707870, -20.838139, -51.491554, -3.127797, -0.008818, -2.120473
149330516.741111, -0.000567, 0.000348, -0.000945, -0.000000, -0.015483, -0.997673, -11.717870, -20.762886, -51.459587, -3.127770, -0.008646, -2.120086
149330516.742139, -0.001178, 0.002791, -0.000639, 0.014889, -0.015483, -0.982557, -11.725869, -20.702684, -51.434013, -3.127744, -0.008804, -2.120322
149330516.743185, 0.003098, 0.002485, -0.001555, 0.014889, -0.015483, -0.982557, -11.732269, -20.654522, -51.413551, -3.127676, -0.008957, -2.120569
149330516.744170, 0.004625, -0.003012, -0.001555, 0.014889, -0.015483, -0.967441, -11.696317, -20.697624, -51.373859, -3.127590, -0.009057, -2.120781
149330516.745199, 0.000349, -0.000569, -0.001555, 0.014889, -0.015483, -0.967441, -11.667555, -20.732107, -51.342106, -3.127547, -0.009178, -2.120950
149330516.746252, 0.005235, 0.002180, 0.001194, 0.014889, -0.015483, -0.967441, -11.644545, -20.759693, -51.316704, -3.127455, -0.009324, -2.121115
149330516.747280, -0.000263, 0.000042, -0.002471, 0.014889, -0.030966, -0.997673, -11.646673, -20.802170, -51.366356, -3.127121, -0.009441, -2.121568
149330516.748442, 0.001875, -0.003317, -0.001249, 0.014889, -0.015483, -0.982557, -11.648376, -20.836151, -51.406075, -3.127074, -0.009517, -2.121649
149330516.749353, 0.007372, -0.000568, 0.001805, 0.014889, -0.015483, -0.982557, -11.649738, -20.863337, -51.437851, -3.126984, -0.009624, -2.121748
149330516.750374, 0.003706, 0.000042, 0.001499, 0.014889, -0.015483, -0.982557, -11.650828, -20.885086, -51.463272, -3.126924, -0.009735, -2.121837
149330516.751423, 0.009509, -0.001179, -0.001860, 0.014889, -0.015483, -1.012789, -11.713309, -20.820852, -51.506931, -3.126814, -0.009822, -2.121936
149330516.752447, 0.003094, 0.000043, -0.000333, 0.014889, -0.015483, -1.012789, -11.763294, -20.769464, -51.541859, -3.126774, -0.009920, -2.122108
149330516.753490, -0.001792, 0.000043, 0.001499, -0.000000, -0.015483, -0.982557, -11.803282, -20.728355, -51.569801, -3.126775, -0.009722, -2.121799
149330516.754477, 0.001567, 0.004318, -0.000333, -0.000000, -0.015483, -0.982557, -11.753126, -20.675060, -51.568832, -3.126742, -0.009569, -2.121464
149330516.755529, 0.000040, 0.003707, -0.000944, -0.000000, -0.015483, -0.982557, -11.713002, -20.632423, -51.568058, -3.126725, -0.009416, -2.121117
149330516.756555, -0.001182, -0.000264, -0.000028, -0.000000, -0.015483, -0.982557, -11.680902, -20.598314, -51.567436, -3.126721, -0.009225, -2.120778
149330516.757570, 0.000345, 0.001569, -0.003387, 0.029778, -0.015483, -0.967441, -11.655223, -20.673067, -51.520290, -3.126704, -0.009672, -2.121515
149330516.758670, 0.000956, -0.003012, 0.002110, 0.029778, -0.015483, -0.967441, -11.634680, -20.732870, -51.482574, -3.126678, -0.010062, -2.122248
149330516.759622, -0.003930, -0.002707, 0.000278, 0.014889, -0.015483, -0.997673, -11.618245, -20.780712, -51.452400, -3.126703, -0.010133, -2.122323
149330516.760675, 0.001873, 0.003096, -0.001249, 0.014889, -0.015483, -0.997673, -11.646170, -20.716946, -51.428261, -3.126672, -0.010260, -2.122428
149330516.761784, 0.001873, 0.000347, -0.003082, 0.029778, -0.015483, -0.997673, -11.668509, -20.665932, -51.408951, -3.126646, -0.010656, -2.123096
149330516.762741, -0.002403, 0.000042, -0.000333, 0.029778, -0.015483, -0.997673, -11.686381, -20.625120, -51.393501, -3.126664, -0.011040, -2.123811
149330516.763750, -0.000265, 0.000042, 0.001500, -0.000000, 0.000000, -0.982557, -11.700679, -20.592472, -51.381142, -3.126969, -0.010825, -2.123099
149330516.764825, 0.000956, -0.001180, 0.000278, -0.000000, 0.000000, -0.982557, -11.671044, -20.525537, -51.417904, -3.127255, -0.010601, -2.122394
149330516.765826, -0.001792, 0.004012, 0.003637, -0.000000, -0.015483, -0.982557, -11.647337, -20.471989, -51.447315, -3.127246, -0.010428, -2.122096
149330516.766875, -0.000570, 0.002790, -0.000028, -0.000000, -0.015483, -0.982557, -11.628370, -20.429150, -51.470844, -3.127225, -0.010248, -2.121773
149330516.767880, 0.002178, 0.001874, 0.000278, 0.029778, -0.015483, -0.952324, -11.613197, -20.476511, -51.512989, -3.127174, -0.010687, -2.122612
149330516.768914, 0.003094, -0.000570, 0.000583, 0.029778, -0.015483, -0.952324, -11.601059, -20.514400, -51.546707, -3.127114, -0.011093, -2.123412
149330516.769964, 0.000040, -0.002402, 0.001805, -0.000000, 0.000000, -0.997673, -11.591349, -20.544712, -51.573681, -3.127408, -0.010852, -2.122650
149330516.770974, 0.000956, 0.000957, -0.000028, -0.000000, 0.000000, -0.997673, -11.624653, -20.609777, -51.525288, -3.127686, -0.010650, -2.121882
149330516.772044, 0.001567, 0.002484, -0.000944, -0.000000, 0.000000, -0.997673, -11.651296, -20.661829, -51.486572, -3.127951, -0.010468, -2.121118
149330516.773019, -0.000571, 0.007676, -0.001249, -0.000000, 0.000000, -0.997673, -11.672610, -20.703470, -51.455601, -3.128234, -0.010337, -2.120367
149330516.774055, 0.000345, 0.001567, 0.000889, -0.000000, 0.000000, -0.997673, -11.628053, -20.593927, -51.477470, -3.128501, -0.010151, -2.119664
149330516.775148, -0.004236, -0.001487, 0.000888, -0.000000, -0.015483, -1.012789, -11.592407, -20.506292, -51.494968, -3.128504, -0.009931, -2.119326
149330516.776115, 0.003094, -0.000571, 0.001499, -0.000000, -0.015483, -1.012789, -11.563890, -20.436184, -51.508965, -3.128432, -0.009727, -2.119010
149330516.777173, 0.001261, 0.001567, 0.000277, 0.014889, -0.015483, -0.997673, -11.541078, -20.380098, -51.520164, -3.128373, -0.009847, -2.119277
149330516.778195, 0.000040, 0.004010, 0.001804, 0.014889, -0.015483, -0.997673, -11.584435, -20.478086, -51.505798, -3.128327, -0.009989, -2.119540
149330516.779282, 0.004315, 0.003399, 0.003942, 0.014889, -0.015483, -0.982557, -11.619123, -20.556477, -51.494305, -3.128231, -0.010128, -2.119826
149330516.780267, 0.003704, 0.002788, 0.002109, 0.014889, -0.015483, -0.982557, -11.646872, -20.619188, -51.485111, -3.128148, -0.010255, -2.120075
149330516.781262, 0.004620, 0.005230, 0.001193, -0.000000, 0.000000, -0.982557, -11.710144, -20.648951, -51.477757, -3.128375, -0.010106, -2.119418
149330516.782343, 0.001871, 0.001565, -0.000029, -0.000000, 0.000000, -0.982557, -11.760762, -20.672760, -51.471870, -3.128623, -0.009924, -2.118789
149330516.783345, -0.002405, 0.000649, -0.001556, -0.000000, -0.030966, -0.967441, -11.801256, -20.691807, -51.467163, -3.128265, -0.009734, -2.118916
149330516.784391, 0.001565, 0.000343, 0.000277, -0.000000, -0.030966, -0.967441, -11.792579, -20.645821, -51.533371, -3.127875, -0.009544, -2.119074
149330516.785455, -0.000878, 0.002481, 0.001193, 0.014889, -0.015483, -0.982557, -11.785637, -20.609032, -51.586334, -3.127844, -0.009682, -2.119437
149330516.786438, 0.000954, -0.000268, 0.000276, 0.014889, -0.015483, -0.982557, -11.780084, -20.579601, -51.628708, -3.127796, -0.009789, -2.119793
149330516.787480, 0.001565, -0.002406, 0.000887, -0.000000, -0.030966, -0.982557, -11.775640, -20.617281, -51.662605, -3.127425, -0.009570, -2.119930
149330516.788541, -0.001184, -0.001184, -0.001251, -0.000000, -0.030966, -0.982557, -11.710477, -20.647425, -51.573101, -3.127090, -0.009367, -2.119977
149330516.789512, 0.001260, 0.001260, 0.002414, -0.000000, -0.030966, -0.982557, -11.658346, -20.671539, -51.501499, -3.126738, -0.009191, -2.120007
149330516.790558, -0.000878, 0.002786, -0.000640, -0.000000, -0.030966, -0.982557, -11.616642, -20.690830, -51.444218, -3.126414, -0.009036, -2.119965
149330516.791574, -0.000573, 0.003702, -0.002778, -0.000000, -0.015483, -0.982557, -11.583279, -20.767488, -51.421715, -3.126411, -0.008892, -2.119473
149330516.792601, -0.003321, 0.001259, 0.000887, -0.000000, -0.015483, -0.982557, -11.556588, -20.828815, -51.403713, -3.126435, -0.008727, -2.118982
149330516.793659, 0.002176, 0.000342, -0.000029, 0.014889, -0.015483, -0.967441, -11.535235, -20.877876, -51.389313, -3.126395, -0.008863, -2.119042
149330516.794661, -0.000878, 0.002175, -0.004305, 0.014889, -0.015483, -0.967441, -11.538690, -20.794676, -51.471088, -3.126389, -0.009015, -2.119102
149330516.796166, -0.000573, 0.001258, -0.000028, 0.014889, -0.015483, -0.982557, -11.541452, -20.728115, -51.536510, -3.126386, -0.009156, -2.119220
149330516.797035, -0.003626, 0.000342, -0.001861, 0.014889, -0.015483, -0.982557, -11.543663, -20.674868, -51.588848, -3.126407, -0.009279, -2.119347
149330516.797841, -0.004237, -0.002712, -0.003082, -0.000000, -0.030966, -0.952324, -11.565968, -20.652678, -51.654041, -3.126094, -0.009072, -2.119307
149330516.798931, -0.001182, 0.000953, 0.002415, -0.000000, -0.030966, -0.952324, -11.583812, -20.634926, -51.706196, -3.125767, -0.008901, -2.119341
149330516.799833, 0.002483, 0.003091, 0.003331, 0.014889, -0.015483, -0.982557, -11.598087, -20.620724, -51.747917, -3.125746, -0.009053, -2.119578
149330516.800860, 0.001261, -0.002101, -0.000334, 0.014889, -0.015483, -0.982557, -11.609508, -20.609362, -51.781296, -3.125736, -0.009154, -2.119791
149330516.801868, -0.000266, -0.000574, 0.000277, 0.014889, -0.015483, -0.982557, -11.639180, -20.681906, -51.738029, -3.125741, -0.009268, -2.119994
149330516.803192, 0.002177, -0.003933, -0.001250, -0.000000, -0.015483, -0.982557, -11.662918, -20.739941, -51.703415, -3.125717, -0.009032, -2.119586
149330516.804088, 0.002787, -0.001184, -0.001250, -0.000000, -0.015483, -0.982557, -11.681909, -20.786369, -51.675724, -3.125697, -0.008841, -2.119185
149330516.804998, 0.002482, 0.000343, 0.001804, -0.000000, -0.015483, -0.982557, -11.717637, -20.721470, -51.630245, -3.125679, -0.008667, -2.118874
149330516.805997, -0.003932, 0.000648, -0.000028, -0.000000, -0.015483, -0.982557, -11.746220, -20.669552, -51.593864, -3.125721, -0.008500, -2.118598
149330516.807239, 0.001566, 0.000343, -0.000945, 0.029778, 0.000000, -0.982557, -11.769086, -20.628017, -51.564758, -3.126025, -0.008936, -2.119105
149330516.808128, 0.003398, 0.000343, -0.000334, 0.029778, 0.000000, -0.982557, -11.766843, -20.615196, -51.588120, -3.126312, -0.009363, -2.119614
149330516.809113, 0.002176, 0.002786, 0.000277, -0.000000, -0.015483, -0.967441, -11.765048, -20.604940, -51.606812, -3.126278, -0.009202, -2.119375
149330516.810147, -0.001184, -0.002406, 0.000277, -0.000000, -0.015483, -0.967441, -11.763612, -20.596735, -51.621765, -3.126277, -0.008994, -2.119142
149330516.811216, 0.003703, 0.002480, 0.001499, -0.000000, -0.030966, -0.967441, -11.783000, -20.610580, -51.680374, -3.125904, -0.008841, -2.119320
149330516.812226, -0.002100, 0.002175, -0.000334, -0.000000, -0.030966, -0.967441, -11.798511, -20.621656, -51.727261, -3.125598, -0.008687, -2.119483
149330516.813781, -0.001489, -0.001796, -0.001250, -0.000000, -0.015483, -0.952324, -11.810919, -20.630516, -51.764771, -3.125617, -0.008487, -2.119253
149330516.814879, 0.002176, 0.002175, 0.007302, -0.000000, 0.000000, -0.997673, -11.820846, -20.617195, -51.748131, -3.125914, -0.008344, -2.118773
149330516.815934, 0.003397, 0.002480, 0.003636, -0.000000, 0.000000, -0.997673, -11.828787, -20.606539, -51.734818, -3.126195, -0.008206, -2.118272
149330516.817452, 0.001870, -0.000574, -0.001556, 0.014889, -0.015483, -0.982557, -11.835139, -20.598015, -51.724167, -3.126161, -0.008337, -2.118659
149330516.818618, 0.001564, -0.002712, 0.002109, 0.014889, -0.015483, -0.982557, -11.778612, -20.570787, -51.692326, -3.126138, -0.008442, -2.119056
149330516.819676, -0.000574, -0.001185, -0.001250, -0.000000, -0.030966, -0.982557, -11.733391, -20.549006, -51.666851, -3.125823, -0.008262, -2.119185
149330516.821137, -0.003322, 0.002175, -0.001250, -0.000000, -0.015483, -1.012789, -11.697214, -20.531580, -51.646473, -3.125881, -0.008128, -2.118899
149330516.822331, -0.000268, -0.000879, -0.001556, -0.000000, -0.015483, -1.012789, -11.668272, -20.517639, -51.630169, -3.125894, -0.007956, -2.118601
149330516.823282, 0.000954, -0.003628, -0.000945, 0.029778, -0.015483, -0.967441, -11.645119, -20.506487, -51.617126, -3.125889, -0.008378, -2.119479
149330516.824449, -0.004543, 0.001258, -0.000639, 0.029778, -0.015483, -0.967441, -11.626596, -20.497564, -51.606693, -3.125945, -0.008841, -2.120332
149330516.826619, -0.000267, -0.000879, 0.000277, 0.014889, -0.015483, -0.982557, -11.693924, -20.674099, -51.644993, -3.125949, -0.008948, -2.120569
149330516.828032, -0.004237, 0.000953, 0.000582, -0.000000, -0.015483, -0.982557, -11.747786, -20.672470, -51.652309, -3.126006, -0.008782, -2.120267
149330516.829936, 0.001260, -0.002406, 0.000582, 0.014889, -0.015483, -0.967441, -11.790875, -20.671167, -51.658161, -3.125976, -0.008869, -2.120595
149330516.830848, -0.000267, 0.000037, -0.000945, 0.014889, -0.015483, -0.967441, -11.825347, -20.670126, -51.662842, -3.125971, -0.009000, -2.120924
149330516.831788, 0.000955, 0.002786, -0.000945, 0.014889, -0.015483, -0.967441, -11.852924, -20.689701, -51.643265, -3.125956, -0.009154, -2.121256
149330516.832806, 0.003398, 0.001258, 0.001804, -0.000000, -0.015483, -0.982557, -11.874986, -20.705360, -51.627602, -3.125921, -0.008983, -2.121031
149330516.833826, 0.006451, 0.002174, -0.000639, -0.000000, -0.015483, -0.982557, -11.892635, -20.717888, -51.615074, -3.125856, -0.008825, -2.120792
149330516.834881, 0.002786, 0.000342, -0.000639, -0.000000, -0.030966, -0.967441, -11.886218, -20.727909, -51.581726, -3.125501, -0.008654, -2.120936
149330516.835903, 0.001564, 0.001258, -0.001555, -0.000000, -0.030966, -0.967441, -11.881084, -20.735928, -51.555046, -3.125167, -0.008495, -2.121060
149330516.836938, 0.003702, 0.000952, -0.000639, 0.014889, -0.015483, -0.967441, -11.876978, -20.742342, -51.533703, -3.125139, -0.008642, -2.121382
149330516.837934, 0.000647, 0.004006, 0.000888, 0.014889, -0.015483, -0.967441, -11.873693, -20.747473, -51.516628, -3.125143, -0.008816, -2.121710
149330516.839024, 0.000647, -0.000881, 0.001499, -0.000000, -0.015483, -0.967441, -11.871064, -20.690353, -51.572941, -3.125146, -0.008630, -2.121482
149330516.840050, -0.002712, 0.000036, 0.001804, -0.000000, -0.015483, -0.967441, -11.868961, -20.644657, -51.617992, -3.125183, -0.008457, -2.121279
149330516.841064, 0.003091, -0.001491, -0.001250, 0.014889, -0.015483, -0.982557, -11.867279, -20.608101, -51.654034, -3.125166, -0.008577, -2.121634
149330516.842101, 0.000036, -0.002102, 0.002109, 0.014889, -0.015483, -0.982557, -11.865933, -20.578856, -51.682865, -3.125180, -0.008686, -2.122027
149330516.843142, 0.002480, -0.002712, 0.001804, 0.014889, 0.000000, -0.967441, -11.864857, -20.555460, -51.705933, -3.125484, -0.008792, -2.122062
149330516.844150, -0.000880, 0.002480, -0.001250, 0.014889, 0.000000, -0.967441, -11.863996, -20.536743, -51.724384, -3.125814, -0.008948, -2.122073
149330516.845156, -0.004239, 0.002785, 0.000582, 0.029778, -0.030966, -0.967441, -11.924916, -20.582994, -51.762470, -3.125547, -0.009423, -2.123468
149330516.846218, 0.006145, -0.002407, 0.002109, 0.029778, -0.030966, -0.967441, -11.973653, -20.619995, -51.792938, -3.125178, -0.009835, -2.124867
149330516.847220, 0.000952, 0.002479, 0.001803, -0.000000, 0.000000, -0.982557, -12.012642, -20.649595, -51.817314, -3.125499, -0.009666, -2.124340
149330516.848245, -0.004851, 0.005533, 0.002414, -0.000000, 0.000000, -0.982557, -12.023296, -20.591642, -51.813492, -3.125872, -0.009532, -2.123863
149330516.849286, -0.001491, 0.002478, -0.000640, 0.014889, -0.015483, -0.982557, -12.031820, -20.545280, -51.810432, -3.125888, -0.009670, -2.124321
149330516.850349, -0.001796, 0.002784, -0.001556, 0.014889, -0.015483, -0.982557, -12.038639, -20.508190, -51.807983, -3.125907, -0.009809, -2.124783
149330516.851400, 0.001258, 0.000035, -0.001251, -0.000000, -0.015483, -0.982557, -12.044094, -20.478519, -51.806026, -3.125893, -0.009613, -2.124683
149330516.852404, 0.000037, 0.003394, 0.002414, -0.000000, -0.015483, -0.982557, -12.068995, -20.495598, -51.827782, -3.125892, -0.009454, -2.124634
149330516.853430, 0.000647, 0.002172, 0.001498, -0.000000, -0.015483, -0.997673, -12.088915, -20.509262, -51.845188, -3.125889, -0.009287, -2.124579
149330516.854491, -0.000880, 0.002477, 0.000887, -0.000000, -0.015483, -0.997673, -12.104852, -20.520193, -51.859112, -3.125902, -0.009127, -2.124527
149330516.855881, 0.000647, 0.003088, -0.000946, 0.014889, 0.000000, -0.967441, -12.097064, -20.549347, -51.870251, -3.126207, -0.009293, -2.124648
149330516.857063, -0.002101, 0.000034, 0.000276, 0.014889, 0.000000, -0.967441, -12.090835, -20.572670, -51.879162, -3.126540, -0.009415, -2.124768
149330516.858199, -0.004544, 0.000644, -0.000030, 0.014889, 0.000000, -0.967441, -12.085851, -20.591328, -51.886292, -3.126891, -0.009541, -2.124871
149330516.859560, -0.000574, 0.001866, -0.000030, 0.014889, 0.000000, -0.967441, -12.081863, -20.606255, -51.891994, -3.127193, -0.009682, -2.124962
149330516.860643, 0.002175, -0.002105, -0.000029, -0.000000, -0.030966, -0.997673, -12.078673, -20.618195, -51.896557, -3.126836, -0.009468, -2.125206
149330516.861731, 0.001259, -0.003631, -0.000335, -0.000000, -0.030966, -0.997673, -12.014512, -20.607338, -51.923531, -3.126497, -0.009241, -2.125398
149330516.863108, -0.002101, 0.000645, 0.000276, 0.014889, -0.015483, -0.997673, -11.963183, -20.598654, -51.945110, -3.126518, -0.009363, -2.125751
149330516.863959, 0.000953, 0.001255, 0.003635, -0.000000, -0.015483, -0.982557, -11.922120, -20.591705, -51.962376, -3.126497, -0.009186, -2.125535
149330516.864759, 0.000648, 0.003088, 0.001497, -0.000000, -0.015483, -0.982557, -11.889270, -20.586147, -51.976185, -3.126480, -0.009027, -2.125284
149330516.865806, -0.002101, -0.001188, -0.001557, -0.000000, -0.015483, -0.982557, -11.965672, -20.622517, -51.987232, -3.126489, -0.008834, -2.125049
149330516.866809, -0.000879, -0.001494, 0.000886, -0.000000, -0.015483, -0.967441, -12.026793, -20.651613, -51.996071, -3.126481, -0.008643, -2.124882
149330516.867832, -0.003933, 0.000644, -0.000946, -0.000000, -0.015483, -0.967441, -12.075690, -20.674891, -52.003143, -3.126503, -0.008476, -2.124727
149330516.868895, 0.003397, -0.000883, 0.002108, 0.014889, -0.015483, -0.982557, -12.114808, -20.673103, -51.962154, -3.126456, -0.008601, -2.125199
149330516.869937, -0.001795, 0.000644, 0.002413, 0.014889, -0.015483, -0.982557, -12.146102, -20.671675, -51.929363, -3.126463, -0.008738, -2.125686
149330516.870938, -0.000268, -0.001493, -0.000030, 0.014889, 0.000000, -0.982557, -12.171138, -20.670532, -51.903130, -3.126768, -0.008851, -2.125786
149330516.871964, 0.001259, 0.002172, 0.002718, 0.014889, 0.000000, -0.982557, -12.129557, -20.669617, -51.835495, -3.127052, -0.008997, -2.125883
149330516.873258, 0.004313, 0.007058, 0.000580, 0.014889, 0.000000, -0.967441, -12.096292, -20.668884, -51.781387, -3.127288, -0.009214, -2.125945
149330516.874134, 0.001564, 0.002171, -0.001252, 0.014889, 0.000000, -0.967441, -12.069680, -20.668299, -51.738102, -3.127560, -0.009356, -2.125967
149330516.875060, 0.000648, 0.000949, -0.002168, -0.000000, -0.015483, -0.967441, -12.048390, -20.749464, -51.820091, -3.127516, -0.009178, -2.125725
149330516.876063, 0.000648, 0.000949, -0.001863, -0.000000, -0.015483, -0.967441, -12.092968, -20.814396, -51.885685, -3.127472, -0.009004, -2.125494
149330516.877296, 0.000342, -0.001189, 0.000886, 0.014889, 0.000000, -0.952324, -12.128631, -20.866341, -51.938160, -3.127750, -0.009122, -2.125512
149330516.878196, 0.005228, 0.000949, 0.002108, 0.014889, 0.000000, -0.952324, -12.157161, -20.907896, -51.980137, -3.127981, -0.009260, -2.125541
149330516.879322, 0.001258, 0.000032, -0.001557, 0.014889, -0.015483, -0.982557, -12.118375, -20.818691, -51.967072, -3.127925, -0.009379, -2.125893
149330516.880211, -0.000575, -0.001800, -0.003695, 0.014889, -0.015483, -0.982557, -12.087346, -20.747328, -51.956619, -3.127890, -0.009479, -2.126234
149330516.881251, 0.001258, 0.001865, -0.002168, -0.000000, -0.015483, -0.997673, -12.062524, -20.690237, -51.948257, -3.127842, -0.009309, -2.126011
149330516.882463, 0.004922, 0.005224, -0.000335, -0.000000, -0.015483, -0.997673, -12.022129, -20.644566, -51.941566, -3.127749, -0.009185, -2.125801
149330516.883526, 0.001868, 0.003086, -0.000030, -0.000000, 0.000000, -0.982557, -11.989814, -20.608028, -51.936214, -3.128009, -0.009037, -2.125238
149330516.884386, -0.002713, 0.002169, -0.000030, -0.000000, 0.000000, -0.982557, -11.963962, -20.578798, -51.931934, -3.128306, -0.008878, -2.124681
149330516.885429, -0.002713, 0.004307, -0.000640, 0.014889, -0.046450, -0.982557, -12.004889, -20.637047, -51.905186, -3.127659, -0.009068, -2.125875
149330516.886398, 0.004922, 0.001864, 0.000276, 0.014889, -0.046450, -0.982557, -12.037630, -20.683645, -51.883789, -3.126950, -0.009226, -2.127053
149330516.887450, 0.005838, -0.003939, -0.000030, 0.014889, -0.015483, -0.967441, -12.063824, -20.720924, -51.866669, -3.126863, -0.009309, -2.127410
149330516.888433, -0.001187, -0.001496, -0.001862, 0.014889, -0.015483, -0.967441, -12.084779, -20.750748, -51.852974, -3.126850, -0.009416, -2.127744
149330516.889802, 0.003699, 0.001559, 0.001498, -0.000000, -0.015483, -0.967441, -12.081006, -20.733789, -51.911991, -3.126776, -0.009248, -2.127538
149330516.891381, 0.001561, 0.003391, 0.000887, -0.000000, -0.015483, -0.967441, -12.077988, -20.720222, -51.959202, -3.126729, -0.009116, -2.127334
149330516.892230, -0.003936, 0.000336, 0.002719, 0.014889, 0.000000, -0.967441, -12.034500, -20.627737, -51.996971, -3.127059, -0.009243, -2.127358
149330516.893037, -0.001493, 0.000336, -0.001252, 0.014889, 0.000000, -0.967441, -11.999710, -20.553749, -52.027187, -3.127361, -0.009369, -2.127356
149330516.893869, -0.005463, 0.002474, -0.001557, 0.014889, -0.030966, -0.967441, -11.971878, -20.494558, -52.051361, -3.127053, -0.009516, -2.128143
149330516.894738, -0.002408, 0.000642, 0.000887, 0.014889, -0.030966, -0.967441, -11.949613, -20.447206, -52.070698, -3.126727, -0.009646, -2.128942
149330516.895644, -0.000575, 0.002168, 0.000886, 0.014889, -0.030966, -0.967441, -11.931800, -20.450140, -52.039520, -3.126391, -0.009786, -2.129711
149330516.896692, -0.000881, 0.001557, -0.000946, -0.000000, -0.015483, -0.982557, -11.917550, -20.452488, -52.014580, -3.126390, -0.009607, -2.129436
149330516.897734, 0.004922, 0.004001, 0.001497, -0.000000, -0.015483, -0.982557, -11.906150, -20.454365, -51.994625, -3.126330, -0.009455, -2.129182
149330516.898785, 0.000340, 0.001862, -0.000030, 0.014889, -0.015483, -0.982557, -11.938103, -20.517092, -51.978661, -3.126318, -0.009588, -2.129489
149330516.899785, 0.000035, 0.001557, 0.002413, 0.014889, -0.015483, -0.982557, -11.963665, -20.567272, -51.965889, -3.126308, -0.009714, -2.129809
149330516.900837, -0.003019, -0.001497, -0.002168, -0.000000, -0.015483, -0.982557, -11.984115, -20.607418, -51.955673, -3.126332, -0.009505, -2.129498
149330516.901853, -0.000576, -0.005162, -0.003695, -0.000000, -0.015483, -0.982557, -12.000475, -20.639534, -51.947502, -3.126329, -0.009264, -2.129176
149330516.902884, -0.003630, -0.000581, 0.002414, 0.014889, -0.015483, -0.982557, -11.931417, -20.583593, -51.870995, -3.126356, -0.009376, -2.129471
149330516.903907, -0.003629, 0.000030, -0.001251, 0.014889, -0.015483, -0.982557, -11.876171, -20.538841, -51.809788, -3.126383, -0.009492, -2.129702
149330516.904964, 0.002479, -0.000275, -0.001557, -0.000000, -0.015483, -0.967441, -11.831974, -20.503040, -51.760822, -3.126343, -0.009299, -2.129338
149330516.905992, 0.001257, 0.001557, -0.001862, -0.000000, -0.015483, -0.967441, -11.817153, -20.515215, -51.791618, -3.126318, -0.009129, -2.128963
149330516.907008, -0.002102, 0.002168, 0.000581, -0.000000, -0.015483, -0.997673, -11.805296, -20.524956, -51.816257, -3.126335, -0.008968, -2.128594
149330516.908044, -0.000270, 0.000335, 0.000276, -0.000000, -0.015483, -0.997673, -11.795811, -20.532747, -51.835968, -3.126334, -0.008792, -2.128220
149330516.909060, -0.000269, 0.002778, 0.001498, 0.029778, -0.030966, -0.967441, -11.808759, -20.600204, -51.875061, -3.126015, -0.009268, -2.129415
149330516.910129, 0.000341, 0.004000, 0.002108, 0.029778, -0.030966, -0.967441, -11.819118, -20.654171, -51.906334, -3.125695, -0.009748, -2.130576
149330516.911114, -0.001186, -0.002414, 0.001803, 0.014889, -0.030966, -0.967441, -11.827404, -20.697344, -51.931355, -3.125386, -0.009842, -2.131120
149330516.912139, 0.001258, -0.002414, -0.000641, 0.014889, -0.030966, -0.967441, -11.854569, -20.589025, -51.904724, -3.125059, -0.009933, -2.131702
149330516.913201, 0.002479, 0.003694, -0.000030, -0.000000, -0.015483, -0.982557, -11.876302, -20.502371, -51.883419, -3.125051, -0.009773, -2.131343
149330516.914213, 0.001563, 0.002472, -0.000641, -0.000000, -0.015483, -0.982557, -11.893688, -20.433046, -51.866375, -3.125052, -0.009602, -2.131028
149330516.915233, 0.003700, 0.004610, -0.001557, -0.000000, -0.015483, -0.982557, -11.907598, -20.377588, -51.852737, -3.125032, -0.009457, -2.130747
149330516.916268, 0.000646, 0.002166, -0.000030, 0.014889, -0.015483, -0.982557, -11.898189, -20.414854, -51.888477, -3.125043, -0.009592, -2.131040
149330516.917300, -0.001797, 0.002472, 0.002414, 0.014889, -0.015483, -0.982557, -11.890661, -20.444666, -51.917068, -3.125077, -0.009728, -2.131334
149330516.918333, 0.001868, 0.002777, 0.002108, 0.014889, 0.000000, -0.982557, -11.884639, -20.468515, -51.939941, -3.125388, -0.009865, -2.131231
149330516.919384, 0.003394, -0.002110, 0.000581, 0.014889, 0.000000, -0.982557, -11.920894, -20.548820, -51.911591, -3.125677, -0.009950, -2.131105
149330516.920399, 0.000340, -0.001804, -0.000336, 0.014889, -0.030966, -0.997673, -11.949898, -20.613064, -51.888912, -3.125373, -0.010036, -2.131705
149330516.921432, -0.003019, -0.000583, 0.003024, 0.014889, -0.030966, -0.997673, -11.973102, -20.664459, -51.870770, -3.125108, -0.010131, -2.132318
149330516.922479, -0.001187, 0.000028, -0.000031, -0.000000, -0.030966, -0.982557, -11.909519, -20.603535, -51.879578, -3.124820, -0.009929, -2.132306
149330516.923482, -0.001492, 0.000028, -0.003085, -0.000000, -0.030966, -0.982557, -11.858653, -20.554794, -51.886623, -3.124541, -0.009731, -2.132250
149330516.924538, 0.001257, -0.001804, -0.000641, -0.000000, -0.015483, -0.967441, -11.817960, -20.515802, -51.892262, -3.124551, -0.009518, -2.131828
149330516.925539, 0.000951, 0.000639, -0.001557, -0.000000, -0.015483, -0.967441, -11.785405, -20.484608, -51.896770, -3.124564, -0.009335, -2.131397
149330516.926597, -0.001797, 0.000334, -0.001252, 0.014889, -0.030966, -0.967441, -11.759361, -20.459652, -51.900379, -3.124286, -0.009464, -2.131960
149330516.927618, -0.004546, 0.002166, -0.000030, 0.014889, -0.030966, -0.967441, -11.738526, -20.439688, -51.903267, -3.124039, -0.009608, -2.132520
149330516.928661, 0.002479, 0.000944, -0.001557, 0.014889, -0.015483, -0.982557, -11.721859, -20.423717, -51.905575, -3.124050, -0.009728, -2.132631
149330516.930378, 0.001257, -0.001194, -0.000335, 0.014889, -0.015483, -0.982557, -11.770134, -20.512981, -51.884098, -3.124065, -0.009816, -2.132743
149330516.931241, -0.000270, 0.001861, 0.001497, 0.014889, -0.015483, -0.982557, -11.808754, -20.584393, -51.866917, -3.124103, -0.009938, -2.132866
149330516.932060, -0.001492, 0.000028, -0.000335, 0.014889, -0.015483, -0.982557, -11.839650, -20.641521, -51.853172, -3.124150, -0.010042, -2.132967
149330516.932885, 0.000035, 0.000333, 0.003330, -0.015630, -0.046450, -0.997673, -11.884903, -20.605593, -51.865501, -3.123571, -0.009526, -2.132691
